"Participant","Illusion_Type","Illusion_Difference","Illusion_Strength","File","Block","Trial","ISI","RT","Response","Response_Correct","Error","Illusion_Effect","Task_Difficulty","Condition_Illusion","Condition_Difficulty"
"qbb6xqvqpv","MullerLyer",-0.18509,-15,"MullerLyer_-15.000_-0.18509.png","A",2,497149,0.987,"arrowdown","arrowdown",0,"Congruent",0.18509,"Congruent - Mild","Hard"
"qbb6xqvqpv","MullerLyer",-0.45,27,"MullerLyer_27.0000_-0.4500.png","A",3,498780,1.089,"arrowdown","arrowdown",0,"Incongruent",0.45,"Incongruent - Strong","Easy"
"qbb6xqvqpv","MullerLyer",-0.18509,15,"MullerLyer_15.0000_-0.18509.png","A",4,500550,1.407,"arrowup","arrowdown",1,"Incongruent",0.18509,"Incongruent - Mild","Hard"
"qbb6xqvqpv","MullerLyer",-0.18509,27,"MullerLyer_27.0000_-0.18509.png","A",5,502774,0.781,"arrowup","arrowdown",1,"Incongruent",0.18509,"Incongruent - Strong","Hard"
"qbb6xqvqpv","MullerLyer",0.18509,21,"MullerLyer_21.0000_0.18509.png","A",6,504480,1.447,"arrowdown","arrowup",1,"Incongruent",0.18509,"Incongruent - Strong","Hard"
"qbb6xqvqpv","MullerLyer",-0.30447,-3,"MullerLyer_-3.0000_-0.30447.png","A",7,506602,0.832,"arrowdown","arrowdown",0,"Congruent",0.30447,"Congruent - Mild","Easy"
"qbb6xqvqpv","MullerLyer",0.45,21,"MullerLyer_21.0000_0.45000.png","A",8,508257,0.835,"arrowup","arrowup",0,"Incongruent",0.45,"Incongruent - Strong","Easy"
"qbb6xqvqpv","MullerLyer",-0.45,-21,"MullerLyer_-21.000_-0.4500.png","A",9,510041,0.569,"arrowdown","arrowdown",0,"Congruent",0.45,"Congruent - Strong","Easy"
"qbb6xqvqpv","MullerLyer",-0.18509,-21,"MullerLyer_-21.000_-0.18509.png","A",10,511476,0.656,"arrowdown","arrowdown",0,"Congruent",0.18509,"Congruent - Strong","Hard"
"qbb6xqvqpv","MullerLyer",0.45,9,"MullerLyer_9.00000_0.45000.png","A",11,512914,0.538,"arrowup","arrowup",0,"Incongruent",0.45,"Incongruent - Mild","Easy"
"qbb6xqvqpv","MullerLyer",-0.45,-27,"MullerLyer_-27.000_-0.4500.png","A",12,514173,0.478,"arrowdown","arrowdown",0,"Congruent",0.45,"Congruent - Strong","Easy"
"qbb6xqvqpv","MullerLyer",0.18509,15,"MullerLyer_15.0000_0.18509.png","A",13,515565,1.206,"arrowdown","arrowup",1,"Incongruent",0.18509,"Incongruent - Mild","Hard"
"qbb6xqvqpv","MullerLyer",0.45,27,"MullerLyer_27.0000_0.45000.png","A",14,517699,0.947,"arrowup","arrowup",0,"Incongruent",0.45,"Incongruent - Strong","Easy"
"qbb6xqvqpv","MullerLyer",0.08716,-3,"MullerLyer_-3.0000_0.08716.png","A",16,524033,0.799,"arrowup","arrowup",0,"Congruent",0.08716,"Congruent - Mild","Hard"
"qbb6xqvqpv","MullerLyer",-0.18509,-27,"MullerLyer_-27.000_-0.18509.png","A",17,525703,0.757,"arrowdown","arrowdown",0,"Congruent",0.18509,"Congruent - Strong","Hard"
"qbb6xqvqpv","MullerLyer",-0.08716,27,"MullerLyer_27.0000_-0.08716.png","A",18,527207,0.73,"arrowup","arrowdown",1,"Incongruent",0.08716,"Incongruent - Strong","Hard"
"qbb6xqvqpv","MullerLyer",0.08716,3,"MullerLyer_3.00000_0.08716.png","A",19,528675,1.08,"arrowup","arrowup",0,"Incongruent",0.08716,"Incongruent - Mild","Hard"
"qbb6xqvqpv","MullerLyer",0.18509,9,"MullerLyer_9.00000_0.18509.png","A",20,530736,1.534,"arrowup","arrowup",0,"Incongruent",0.18509,"Incongruent - Mild","Hard"
"qbb6xqvqpv","MullerLyer",-0.18509,9,"MullerLyer_9.00000_-0.18509.png","A",21,533294,1.245,"arrowdown","arrowdown",0,"Incongruent",0.18509,"Incongruent - Mild","Hard"
"qbb6xqvqpv","MullerLyer",-0.18509,-9,"MullerLyer_-9.0000_-0.18509.png","A",22,535295,1.425,"arrowup","arrowdown",1,"Congruent",0.18509,"Congruent - Mild","Hard"
"qbb6xqvqpv","MullerLyer",0.18509,-3,"MullerLyer_-3.0000_0.18509.png","A",23,537497,0.628,"arrowup","arrowup",0,"Congruent",0.18509,"Congruent - Mild","Hard"
"qbb6xqvqpv","MullerLyer",0.45,-9,"MullerLyer_-9.0000_0.45000.png","A",24,539203,0.654,"arrowup","arrowup",0,"Congruent",0.45,"Congruent - Mild","Easy"
"qbb6xqvqpv","MullerLyer",0.18509,-9,"MullerLyer_-9.0000_0.18509.png","A",25,540919,0.689,"arrowup","arrowup",0,"Congruent",0.18509,"Congruent - Mild","Hard"
"qbb6xqvqpv","MullerLyer",-0.18509,3,"MullerLyer_3.00000_-0.18509.png","A",26,542592,0.856,"arrowdown","arrowdown",0,"Incongruent",0.18509,"Incongruent - Mild","Hard"
"qbb6xqvqpv","MullerLyer",0.30447,-27,"MullerLyer_-27.000_0.30447.png","A",27,544334,0.516,"arrowup","arrowup",0,"Congruent",0.30447,"Congruent - Strong","Easy"
"qbb6xqvqpv","MullerLyer",0.08716,15,"MullerLyer_15.0000_0.08716.png","A",28,545607,1.051,"arrowdown","arrowup",1,"Incongruent",0.08716,"Incongruent - Mild","Hard"
"qbb6xqvqpv","MullerLyer",-0.30447,-21,"MullerLyer_-21.000_-0.30447.png","A",29,547762,0.665,"arrowdown","arrowdown",0,"Congruent",0.30447,"Congruent - Strong","Easy"
"qbb6xqvqpv","MullerLyer",-0.18509,21,"MullerLyer_21.0000_-0.18509.png","A",31,553376,1.216,"arrowup","arrowdown",1,"Incongruent",0.18509,"Incongruent - Strong","Hard"
"qbb6xqvqpv","MullerLyer",0.30447,-9,"MullerLyer_-9.0000_0.30447.png","A",32,555671,0.599,"arrowup","arrowup",0,"Congruent",0.30447,"Congruent - Mild","Easy"
"qbb6xqvqpv","MullerLyer",-0.45,-15,"MullerLyer_-15.000_-0.4500.png","A",33,557219,0.597,"arrowdown","arrowdown",0,"Congruent",0.45,"Congruent - Mild","Easy"
"qbb6xqvqpv","MullerLyer",0.08716,-9,"MullerLyer_-9.0000_0.08716.png","A",34,558438,0.761,"arrowup","arrowup",0,"Congruent",0.08716,"Congruent - Mild","Hard"
"qbb6xqvqpv","MullerLyer",0.30447,-15,"MullerLyer_-15.000_0.30447.png","A",35,560014,0.564,"arrowup","arrowup",0,"Congruent",0.30447,"Congruent - Mild","Easy"
"qbb6xqvqpv","MullerLyer",0.45,-15,"MullerLyer_-15.000_0.45000.png","A",36,561548,0.472,"arrowup","arrowup",0,"Congruent",0.45,"Congruent - Mild","Easy"
"qbb6xqvqpv","MullerLyer",-0.08716,15,"MullerLyer_15.0000_-0.08716.png","A",37,562833,1.997,"arrowup","arrowdown",1,"Incongruent",0.08716,"Incongruent - Mild","Hard"
"qbb6xqvqpv","MullerLyer",0.30447,-21,"MullerLyer_-21.000_0.30447.png","A",38,565782,0.828,"arrowup","arrowup",0,"Congruent",0.30447,"Congruent - Strong","Easy"
"qbb6xqvqpv","MullerLyer",0.45,-3,"MullerLyer_-3.0000_0.45000.png","A",39,567489,0.513,"arrowup","arrowup",0,"Congruent",0.45,"Congruent - Mild","Easy"
"qbb6xqvqpv","MullerLyer",0.30447,-3,"MullerLyer_-3.0000_0.30447.png","A",40,568645,0.731,"arrowup","arrowup",0,"Congruent",0.30447,"Congruent - Mild","Easy"
"qbb6xqvqpv","MullerLyer",0.45,3,"MullerLyer_3.00000_0.45000.png","A",41,570328,0.669,"arrowup","arrowup",0,"Incongruent",0.45,"Incongruent - Mild","Easy"
"qbb6xqvqpv","MullerLyer",0.30447,9,"MullerLyer_9.00000_0.30447.png","A",42,571862,0.899,"arrowup","arrowup",0,"Incongruent",0.30447,"Incongruent - Mild","Easy"
"qbb6xqvqpv","MullerLyer",0.45,15,"MullerLyer_15.0000_0.45000.png","A",43,573795,0.772,"arrowup","arrowup",0,"Incongruent",0.45,"Incongruent - Mild","Easy"
"qbb6xqvqpv","MullerLyer",-0.18509,-3,"MullerLyer_-3.0000_-0.18509.png","A",44,575436,0.806,"arrowdown","arrowdown",0,"Congruent",0.18509,"Congruent - Mild","Hard"
"qbb6xqvqpv","MullerLyer",0.08716,21,"MullerLyer_21.0000_0.08716.png","A",45,576871,1.45,"arrowdown","arrowup",1,"Incongruent",0.08716,"Incongruent - Strong","Hard"
"qbb6xqvqpv","MullerLyer",-0.45,3,"MullerLyer_3.00000_-0.4500.png","A",46,579338,0.543,"arrowdown","arrowdown",0,"Incongruent",0.45,"Incongruent - Mild","Easy"
"qbb6xqvqpv","MullerLyer",-0.45,15,"MullerLyer_15.0000_-0.4500.png","A",47,580549,0.571,"arrowdown","arrowdown",0,"Incongruent",0.45,"Incongruent - Mild","Easy"
"qbb6xqvqpv","MullerLyer",-0.08716,21,"MullerLyer_21.0000_-0.08716.png","A",48,581833,0.86,"arrowup","arrowdown",1,"Incongruent",0.08716,"Incongruent - Strong","Hard"
"qbb6xqvqpv","MullerLyer",-0.45,21,"MullerLyer_21.0000_-0.4500.png","A",49,583773,0.791,"arrowdown","arrowdown",0,"Incongruent",0.45,"Incongruent - Strong","Easy"
"qbb6xqvqpv","MullerLyer",0.30447,15,"MullerLyer_15.0000_0.30447.png","A",50,585383,0.847,"arrowup","arrowup",0,"Incongruent",0.30447,"Incongruent - Mild","Easy"
"qbb6xqvqpv","MullerLyer",0.08716,27,"MullerLyer_27.0000_0.08716.png","A",51,587332,0.819,"arrowdown","arrowup",1,"Incongruent",0.08716,"Incongruent - Strong","Hard"
"qbb6xqvqpv","MullerLyer",0.18509,3,"MullerLyer_3.00000_0.18509.png","A",52,588817,0.77,"arrowup","arrowup",0,"Incongruent",0.18509,"Incongruent - Mild","Hard"
"qbb6xqvqpv","MullerLyer",0.30447,3,"MullerLyer_3.00000_0.30447.png","A",53,590365,0.723,"arrowup","arrowup",0,"Incongruent",0.30447,"Incongruent - Mild","Easy"
"qbb6xqvqpv","MullerLyer",0.30447,21,"MullerLyer_21.0000_0.30447.png","A",54,591789,1.369,"arrowup","arrowup",0,"Incongruent",0.30447,"Incongruent - Strong","Easy"
"qbb6xqvqpv","MullerLyer",0.08716,9,"MullerLyer_9.00000_0.08716.png","A",55,594257,2.096,"arrowdown","arrowup",1,"Incongruent",0.08716,"Incongruent - Mild","Hard"
"qbb6xqvqpv","MullerLyer",0.08716,-15,"MullerLyer_-15.000_0.08716.png","A",56,597402,1.448,"arrowup","arrowup",0,"Congruent",0.08716,"Congruent - Mild","Hard"
"qbb6xqvqpv","MullerLyer",0.45,-27,"MullerLyer_-27.000_0.45000.png","A",57,599837,0.98,"arrowup","arrowup",0,"Congruent",0.45,"Congruent - Strong","Easy"
"qbb6xqvqpv","MullerLyer",-0.08716,-9,"MullerLyer_-9.0000_-0.08716.png","A",58,601521,0.79,"arrowdown","arrowdown",0,"Congruent",0.08716,"Congruent - Mild","Hard"
"qbb6xqvqpv","MullerLyer",0.18509,27,"MullerLyer_27.0000_0.18509.png","A",59,602928,1.535,"arrowdown","arrowup",1,"Incongruent",0.18509,"Incongruent - Strong","Hard"
"qbb6xqvqpv","MullerLyer",-0.08716,-15,"MullerLyer_-15.000_-0.08716.png","A",60,605304,1.086,"arrowdown","arrowdown",0,"Congruent",0.08716,"Congruent - Mild","Hard"
"qbb6xqvqpv","MullerLyer",0.18509,-15,"MullerLyer_-15.000_0.18509.png","A",61,607364,0.904,"arrowup","arrowup",0,"Congruent",0.18509,"Congruent - Mild","Hard"
"qbb6xqvqpv","MullerLyer",0.45,-21,"MullerLyer_-21.000_0.45000.png","A",63,612377,0.494,"arrowup","arrowup",0,"Congruent",0.45,"Congruent - Strong","Easy"
"qbb6xqvqpv","MullerLyer",-0.30447,-15,"MullerLyer_-15.000_-0.30447.png","A",64,613891,0.501,"arrowdown","arrowdown",0,"Congruent",0.30447,"Congruent - Mild","Easy"
"qbb6xqvqpv","MullerLyer",0.18509,-21,"MullerLyer_-21.000_0.18509.png","A",65,615123,0.778,"arrowup","arrowup",0,"Congruent",0.18509,"Congruent - Strong","Hard"
"qbb6xqvqpv","MullerLyer",-0.30447,9,"MullerLyer_9.00000_-0.30447.png","A",66,616636,0.903,"arrowdown","arrowdown",0,"Incongruent",0.30447,"Incongruent - Mild","Easy"
"qbb6xqvqpv","MullerLyer",-0.08716,-27,"MullerLyer_-27.000_-0.08716.png","A",67,618611,0.816,"arrowdown","arrowdown",0,"Congruent",0.08716,"Congruent - Strong","Hard"
"qbb6xqvqpv","MullerLyer",0.08716,-21,"MullerLyer_-21.000_0.08716.png","A",68,620332,0.817,"arrowup","arrowup",0,"Congruent",0.08716,"Congruent - Strong","Hard"
"qbb6xqvqpv","MullerLyer",-0.08716,9,"MullerLyer_9.00000_-0.08716.png","A",69,621900,2.179,"arrowdown","arrowdown",0,"Incongruent",0.08716,"Incongruent - Mild","Hard"
"qbb6xqvqpv","MullerLyer",-0.45,-3,"MullerLyer_-3.0000_-0.4500.png","A",70,624821,0.628,"arrowdown","arrowdown",0,"Congruent",0.45,"Congruent - Mild","Easy"
"qbb6xqvqpv","MullerLyer",-0.08716,-21,"MullerLyer_-21.000_-0.08716.png","A",71,626088,1.063,"arrowdown","arrowdown",0,"Congruent",0.08716,"Congruent - Strong","Hard"
"qbb6xqvqpv","MullerLyer",-0.30447,-27,"MullerLyer_-27.000_-0.30447.png","A",72,627787,0.588,"arrowdown","arrowdown",0,"Congruent",0.30447,"Congruent - Strong","Easy"
"qbb6xqvqpv","MullerLyer",-0.30447,-9,"MullerLyer_-9.0000_-0.30447.png","A",73,629482,0.515,"arrowdown","arrowdown",0,"Congruent",0.30447,"Congruent - Mild","Easy"
"qbb6xqvqpv","MullerLyer",-0.30447,15,"MullerLyer_15.0000_-0.30447.png","A",74,630727,0.991,"arrowdown","arrowdown",0,"Incongruent",0.30447,"Incongruent - Mild","Easy"
"qbb6xqvqpv","MullerLyer",0.08716,-27,"MullerLyer_-27.000_0.08716.png","A",75,632489,0.583,"arrowup","arrowup",0,"Congruent",0.08716,"Congruent - Strong","Hard"
"qbb6xqvqpv","MullerLyer",-0.45,-9,"MullerLyer_-9.0000_-0.4500.png","A",76,634085,0.52,"arrowdown","arrowdown",0,"Congruent",0.45,"Congruent - Mild","Easy"
"qbb6xqvqpv","MullerLyer",-0.30447,3,"MullerLyer_3.00000_-0.30447.png","A",77,635446,0.566,"arrowdown","arrowdown",0,"Incongruent",0.30447,"Incongruent - Mild","Easy"
"qbb6xqvqpv","MullerLyer",0.18509,-27,"MullerLyer_-27.000_0.18509.png","A",78,636792,0.541,"arrowup","arrowup",0,"Congruent",0.18509,"Congruent - Strong","Hard"
"qbb6xqvqpv","MullerLyer",-0.45,9,"MullerLyer_9.00000_-0.4500.png","A",79,638210,0.514,"arrowdown","arrowdown",0,"Incongruent",0.45,"Incongruent - Mild","Easy"
"qbb6xqvqpv","MullerLyer",-0.08716,-3,"MullerLyer_-3.0000_-0.08716.png","A",80,639610,0.827,"arrowdown","arrowdown",0,"Congruent",0.08716,"Congruent - Mild","Hard"
"qbb6xqvqpv","Ebbinghaus",0.09684,0.45,"Ebbinghaus_0.45000_0.09684.png","A",1,661328,1.824,"arrowleft","arrowleft",0,"Incongruent",0.09684,"Incongruent - Mild","Hard"
"qbb6xqvqpv","Ebbinghaus",-0.3383,-0.45,"Ebbinghaus_-0.4500_-0.3383.png","A",2,663932,0.965,"arrowright","arrowright",0,"Congruent",0.3383,"Congruent - Mild","Easy"
"qbb6xqvqpv","Ebbinghaus",0.09684,0.15,"Ebbinghaus_0.15000_0.09684.png","A",3,665795,1.689,"arrowleft","arrowleft",0,"Incongruent",0.09684,"Incongruent - Mild","Hard"
"qbb6xqvqpv","Ebbinghaus",0.20566,-0.15,"Ebbinghaus_-0.1500_0.20566.png","A",6,677311,0.757,"arrowleft","arrowleft",0,"Congruent",0.20566,"Congruent - Mild","Hard"
"qbb6xqvqpv","Ebbinghaus",0.3383,1.05,"Ebbinghaus_1.05000_0.33830.png","A",7,678726,1.325,"arrowleft","arrowleft",0,"Incongruent",0.3383,"Incongruent - Strong","Easy"
"qbb6xqvqpv","Ebbinghaus",-0.09684,1.05,"Ebbinghaus_1.05000_-0.09684.png","A",8,681055,1.456,"arrowleft","arrowright",1,"Incongruent",0.09684,"Incongruent - Strong","Hard"
"qbb6xqvqpv","Ebbinghaus",-0.5,0.45,"Ebbinghaus_0.45000_-0.5000.png","A",10,688356,1.612,"arrowright","arrowright",0,"Incongruent",0.5,"Incongruent - Mild","Easy"
"qbb6xqvqpv","Ebbinghaus",0.20566,-0.45,"Ebbinghaus_-0.4500_0.20566.png","A",11,690686,0.875,"arrowleft","arrowleft",0,"Congruent",0.20566,"Congruent - Mild","Hard"
"qbb6xqvqpv","Ebbinghaus",-0.20566,0.45,"Ebbinghaus_0.45000_-0.20566.png","A",13,695906,1.543,"arrowright","arrowright",0,"Incongruent",0.20566,"Incongruent - Mild","Hard"
"qbb6xqvqpv","Ebbinghaus",0.3383,1.35,"Ebbinghaus_1.35000_0.33830.png","A",14,698447,2.215,"arrowleft","arrowleft",0,"Incongruent",0.3383,"Incongruent - Strong","Easy"
"qbb6xqvqpv","Ebbinghaus",0.5,1.05,"Ebbinghaus_1.05000_0.50000.png","A",15,701402,1.328,"arrowleft","arrowleft",0,"Incongruent",0.5,"Incongruent - Strong","Easy"
"qbb6xqvqpv","Ebbinghaus",-0.5,-0.75,"Ebbinghaus_-0.7500_-0.5000.png","A",16,703465,0.847,"arrowright","arrowright",0,"Congruent",0.5,"Congruent - Mild","Easy"
"qbb6xqvqpv","Ebbinghaus",0.3383,0.15,"Ebbinghaus_0.15000_0.33830.png","A",17,705217,1.335,"arrowleft","arrowleft",0,"Incongruent",0.3383,"Incongruent - Mild","Easy"
"qbb6xqvqpv","Ebbinghaus",-0.09684,-1.35,"Ebbinghaus_-1.3500_-0.09684.png","A",18,707513,1.021,"arrowright","arrowright",0,"Congruent",0.09684,"Congruent - Strong","Hard"
"qbb6xqvqpv","Ebbinghaus",0.09684,-0.15,"Ebbinghaus_-0.1500_0.09684.png","A",19,709199,1.029,"arrowleft","arrowleft",0,"Congruent",0.09684,"Congruent - Mild","Hard"
"qbb6xqvqpv","Ebbinghaus",0.5,0.45,"Ebbinghaus_0.45000_0.50000.png","A",20,710974,0.787,"arrowleft","arrowleft",0,"Incongruent",0.5,"Incongruent - Mild","Easy"
"qbb6xqvqpv","Ebbinghaus",-0.5,-1.35,"Ebbinghaus_-1.3500_-0.5000.png","A",22,716765,1.036,"arrowright","arrowright",0,"Congruent",0.5,"Congruent - Strong","Easy"
"qbb6xqvqpv","Ebbinghaus",0.5,-0.15,"Ebbinghaus_-0.1500_0.50000.png","A",23,718449,1.18,"arrowleft","arrowleft",0,"Congruent",0.5,"Congruent - Mild","Easy"
"qbb6xqvqpv","Ebbinghaus",-0.09684,0.15,"Ebbinghaus_0.15000_-0.09684.png","A",24,720705,2.054,"arrowright","arrowright",0,"Incongruent",0.09684,"Incongruent - Mild","Hard"
"qbb6xqvqpv","Ebbinghaus",0.20566,-0.75,"Ebbinghaus_-0.7500_0.20566.png","A",26,727262,0.691,"arrowleft","arrowleft",0,"Congruent",0.20566,"Congruent - Mild","Hard"
"qbb6xqvqpv","Ebbinghaus",-0.3383,-1.05,"Ebbinghaus_-1.0500_-0.3383.png","A",27,728742,0.665,"arrowright","arrowright",0,"Congruent",0.3383,"Congruent - Strong","Easy"
"qbb6xqvqpv","Ebbinghaus",0.3383,-0.75,"Ebbinghaus_-0.7500_0.33830.png","A",28,730494,0.616,"arrowleft","arrowleft",0,"Congruent",0.3383,"Congruent - Mild","Easy"
"qbb6xqvqpv","Ebbinghaus",-0.3383,-1.35,"Ebbinghaus_-1.3500_-0.3383.png","A",29,732044,0.58,"arrowright","arrowright",0,"Congruent",0.3383,"Congruent - Strong","Easy"
"qbb6xqvqpv","Ebbinghaus",-0.3383,1.05,"Ebbinghaus_1.05000_-0.3383.png","A",30,733520,1.583,"arrowright","arrowright",0,"Incongruent",0.3383,"Incongruent - Strong","Easy"
"qbb6xqvqpv","Ebbinghaus",-0.20566,1.35,"Ebbinghaus_1.35000_-0.20566.png","A",31,736205,0.72,"arrowleft","arrowright",1,"Incongruent",0.20566,"Incongruent - Strong","Hard"
"qbb6xqvqpv","Ebbinghaus",-0.09684,-0.45,"Ebbinghaus_-0.4500_-0.09684.png","A",32,737675,0.664,"arrowright","arrowright",0,"Congruent",0.09684,"Congruent - Mild","Hard"
"qbb6xqvqpv","Ebbinghaus",0.09684,-0.45,"Ebbinghaus_-0.4500_0.09684.png","A",34,743635,2.314,"arrowleft","arrowleft",0,"Congruent",0.09684,"Congruent - Mild","Hard"
"qbb6xqvqpv","Ebbinghaus",-0.3383,0.15,"Ebbinghaus_0.15000_-0.3383.png","A",35,746792,0.843,"arrowright","arrowright",0,"Incongruent",0.3383,"Incongruent - Mild","Easy"
"qbb6xqvqpv","Ebbinghaus",0.20566,0.45,"Ebbinghaus_0.45000_0.20566.png","A",37,752270,1.084,"arrowleft","arrowleft",0,"Incongruent",0.20566,"Incongruent - Mild","Hard"
"qbb6xqvqpv","Ebbinghaus",0.5,-1.05,"Ebbinghaus_-1.0500_0.50000.png","A",38,754005,0.721,"arrowleft","arrowleft",0,"Congruent",0.5,"Congruent - Strong","Easy"
"qbb6xqvqpv","Ebbinghaus",-0.5,-1.05,"Ebbinghaus_-1.0500_-0.5000.png","A",39,755492,0.733,"arrowright","arrowright",0,"Congruent",0.5,"Congruent - Strong","Easy"
"qbb6xqvqpv","Ebbinghaus",0.3383,0.45,"Ebbinghaus_0.45000_0.33830.png","A",40,757206,1.627,"arrowleft","arrowleft",0,"Incongruent",0.3383,"Incongruent - Mild","Easy"
"qbb6xqvqpv","Ebbinghaus",0.5,-1.35,"Ebbinghaus_-1.3500_0.50000.png","A",41,759792,1.144,"arrowleft","arrowleft",0,"Congruent",0.5,"Congruent - Strong","Easy"
"qbb6xqvqpv","Ebbinghaus",-0.5,1.35,"Ebbinghaus_1.35000_-0.5000.png","A",42,762045,0.952,"arrowright","arrowright",0,"Incongruent",0.5,"Incongruent - Strong","Easy"
"qbb6xqvqpv","Ebbinghaus",-0.09684,-0.75,"Ebbinghaus_-0.7500_-0.09684.png","A",43,764057,1.768,"arrowright","arrowright",0,"Congruent",0.09684,"Congruent - Mild","Hard"
"qbb6xqvqpv","Ebbinghaus",-0.20566,-0.15,"Ebbinghaus_-0.1500_-0.20566.png","A",44,766625,0.77,"arrowright","arrowright",0,"Congruent",0.20566,"Congruent - Mild","Hard"
"qbb6xqvqpv","Ebbinghaus",-0.20566,-0.45,"Ebbinghaus_-0.4500_-0.20566.png","A",45,768203,0.716,"arrowright","arrowright",0,"Congruent",0.20566,"Congruent - Mild","Hard"
"qbb6xqvqpv","Ebbinghaus",0.3383,-1.05,"Ebbinghaus_-1.0500_0.33830.png","A",46,769950,0.681,"arrowleft","arrowleft",0,"Congruent",0.3383,"Congruent - Strong","Easy"
"qbb6xqvqpv","Ebbinghaus",-0.20566,-1.35,"Ebbinghaus_-1.3500_-0.20566.png","A",47,771453,0.622,"arrowright","arrowright",0,"Congruent",0.20566,"Congruent - Strong","Hard"
"qbb6xqvqpv","Ebbinghaus",-0.3383,-0.15,"Ebbinghaus_-0.1500_-0.3383.png","A",48,772978,0.763,"arrowright","arrowright",0,"Congruent",0.3383,"Congruent - Mild","Easy"
"qbb6xqvqpv","Ebbinghaus",-0.5,-0.15,"Ebbinghaus_-0.1500_-0.5000.png","A",49,774539,0.52,"arrowright","arrowright",0,"Congruent",0.5,"Congruent - Mild","Easy"
"qbb6xqvqpv","Ebbinghaus",0.5,-0.75,"Ebbinghaus_-0.7500_0.50000.png","A",50,776162,0.485,"arrowleft","arrowleft",0,"Congruent",0.5,"Congruent - Mild","Easy"
"qbb6xqvqpv","Ebbinghaus",0.09684,-1.35,"Ebbinghaus_-1.3500_0.09684.png","A",51,777441,1.281,"arrowleft","arrowleft",0,"Congruent",0.09684,"Congruent - Strong","Hard"
"qbb6xqvqpv","Ebbinghaus",-0.09684,-0.15,"Ebbinghaus_-0.1500_-0.09684.png","A",52,779535,1.425,"arrowright","arrowright",0,"Congruent",0.09684,"Congruent - Mild","Hard"
"qbb6xqvqpv","Ebbinghaus",0.20566,0.15,"Ebbinghaus_0.15000_0.20566.png","A",53,781692,0.718,"arrowleft","arrowleft",0,"Incongruent",0.20566,"Incongruent - Mild","Hard"
"qbb6xqvqpv","Ebbinghaus",0.3383,-0.45,"Ebbinghaus_-0.4500_0.33830.png","A",54,783423,0.804,"arrowleft","arrowleft",0,"Congruent",0.3383,"Congruent - Mild","Easy"
"qbb6xqvqpv","Ebbinghaus",0.20566,-1.35,"Ebbinghaus_-1.3500_0.20566.png","A",55,785204,0.895,"arrowleft","arrowleft",0,"Congruent",0.20566,"Congruent - Strong","Hard"
"qbb6xqvqpv","Ebbinghaus",0.5,0.75,"Ebbinghaus_0.75000_0.50000.png","A",56,787082,1.603,"arrowleft","arrowleft",0,"Incongruent",0.5,"Incongruent - Mild","Easy"
"qbb6xqvqpv","Ebbinghaus",0.3383,0.75,"Ebbinghaus_0.75000_0.33830.png","A",57,789354,1.087,"arrowleft","arrowleft",0,"Incongruent",0.3383,"Incongruent - Mild","Easy"
"qbb6xqvqpv","Ebbinghaus",0.5,-0.45,"Ebbinghaus_-0.4500_0.50000.png","A",58,791106,0.671,"arrowleft","arrowleft",0,"Congruent",0.5,"Congruent - Mild","Easy"
"qbb6xqvqpv","Ebbinghaus",0.20566,1.05,"Ebbinghaus_1.05000_0.20566.png","A",59,792510,0.966,"arrowright","arrowleft",1,"Incongruent",0.20566,"Incongruent - Strong","Hard"
"qbb6xqvqpv","Ebbinghaus",0.3383,-1.35,"Ebbinghaus_-1.3500_0.33830.png","A",60,794482,0.657,"arrowleft","arrowleft",0,"Congruent",0.3383,"Congruent - Strong","Easy"
"qbb6xqvqpv","Ebbinghaus",-0.3383,-0.75,"Ebbinghaus_-0.7500_-0.3383.png","A",61,795953,0.556,"arrowright","arrowright",0,"Congruent",0.3383,"Congruent - Mild","Easy"
"qbb6xqvqpv","Ebbinghaus",0.5,1.35,"Ebbinghaus_1.35000_0.50000.png","A",62,797185,0.797,"arrowleft","arrowleft",0,"Incongruent",0.5,"Incongruent - Strong","Easy"
"qbb6xqvqpv","Ebbinghaus",-0.20566,-1.05,"Ebbinghaus_-1.0500_-0.20566.png","A",63,798998,0.654,"arrowright","arrowright",0,"Congruent",0.20566,"Congruent - Strong","Hard"
"qbb6xqvqpv","Ebbinghaus",-0.20566,0.75,"Ebbinghaus_0.75000_-0.20566.png","A",64,800286,1.08,"arrowright","arrowright",0,"Incongruent",0.20566,"Incongruent - Mild","Hard"
"qbb6xqvqpv","Ebbinghaus",-0.09684,-1.05,"Ebbinghaus_-1.0500_-0.09684.png","A",65,802319,0.678,"arrowright","arrowright",0,"Congruent",0.09684,"Congruent - Strong","Hard"
"qbb6xqvqpv","Ebbinghaus",-0.5,1.05,"Ebbinghaus_1.05000_-0.5000.png","A",66,803886,0.767,"arrowright","arrowright",0,"Incongruent",0.5,"Incongruent - Strong","Easy"
"qbb6xqvqpv","Ebbinghaus",0.09684,0.75,"Ebbinghaus_0.75000_0.09684.png","A",67,805269,1.532,"arrowleft","arrowleft",0,"Incongruent",0.09684,"Incongruent - Mild","Hard"
"qbb6xqvqpv","Ebbinghaus",0.20566,0.75,"Ebbinghaus_0.75000_0.20566.png","A",68,807871,1.996,"arrowleft","arrowleft",0,"Incongruent",0.20566,"Incongruent - Mild","Hard"
"qbb6xqvqpv","Ebbinghaus",-0.5,0.15,"Ebbinghaus_0.15000_-0.5000.png","A",69,810634,0.724,"arrowright","arrowright",0,"Incongruent",0.5,"Incongruent - Mild","Easy"
"qbb6xqvqpv","Ebbinghaus",0.09684,-1.05,"Ebbinghaus_-1.0500_0.09684.png","A",70,812352,0.883,"arrowleft","arrowleft",0,"Congruent",0.09684,"Congruent - Strong","Hard"
"qbb6xqvqpv","Ebbinghaus",-0.5,-0.45,"Ebbinghaus_-0.4500_-0.5000.png","A",71,814192,0.769,"arrowright","arrowright",0,"Congruent",0.5,"Congruent - Mild","Easy"
"qbb6xqvqpv","Ebbinghaus",0.20566,-1.05,"Ebbinghaus_-1.0500_0.20566.png","A",72,815750,0.663,"arrowleft","arrowleft",0,"Congruent",0.20566,"Congruent - Strong","Hard"
"qbb6xqvqpv","Ebbinghaus",-0.5,0.75,"Ebbinghaus_0.75000_-0.5000.png","A",73,817482,0.769,"arrowright","arrowright",0,"Incongruent",0.5,"Incongruent - Mild","Easy"
"qbb6xqvqpv","Ebbinghaus",-0.20566,-0.75,"Ebbinghaus_-0.7500_-0.20566.png","A",75,822718,1.357,"arrowright","arrowright",0,"Congruent",0.20566,"Congruent - Mild","Hard"
"qbb6xqvqpv","Ebbinghaus",-0.3383,0.45,"Ebbinghaus_0.45000_-0.3383.png","A",77,828180,1.025,"arrowright","arrowright",0,"Incongruent",0.3383,"Incongruent - Mild","Easy"
"qbb6xqvqpv","Ebbinghaus",0.20566,1.35,"Ebbinghaus_1.35000_0.20566.png","A",78,829865,0.82,"arrowright","arrowleft",1,"Incongruent",0.20566,"Incongruent - Strong","Hard"
"qbb6xqvqpv","Ebbinghaus",0.3383,-0.15,"Ebbinghaus_-0.1500_0.33830.png","A",80,835917,0.737,"arrowleft","arrowleft",0,"Congruent",0.3383,"Congruent - Mild","Easy"
"qbb6xqvqpv","VerticalHorizontal",-0.20298,22.5,"VerticalHorizontal_22.5000_-0.20298.png","A",2,853280,0.987,"arrowright","arrowright",0,"Incongruent",0.20298,"Incongruent - Mild","Easy"
"qbb6xqvqpv","VerticalHorizontal",0.20298,-4.5,"VerticalHorizontal_-4.5000_0.20298.png","A",4,860350,0.617,"arrowleft","arrowleft",0,"Congruent",0.20298,"Congruent - Mild","Easy"
"qbb6xqvqpv","VerticalHorizontal",0.3,-13.5,"VerticalHorizontal_-13.500_0.30000.png","A",5,862039,0.542,"arrowleft","arrowleft",0,"Congruent",0.3,"Congruent - Mild","Easy"
"qbb6xqvqpv","VerticalHorizontal",-0.12339,-4.5,"VerticalHorizontal_-4.5000_-0.12339.png","A",6,863425,0.523,"arrowright","arrowright",0,"Congruent",0.12339,"Congruent - Mild","Hard"
"qbb6xqvqpv","VerticalHorizontal",-0.3,31.5,"VerticalHorizontal_31.5000_-0.3000.png","A",7,864859,0.59,"arrowright","arrowright",0,"Incongruent",0.3,"Incongruent - Strong","Easy"
"qbb6xqvqpv","VerticalHorizontal",0.12339,-31.5,"VerticalHorizontal_-31.500_0.12339.png","A",9,869901,1.168,"arrowleft","arrowleft",0,"Congruent",0.12339,"Congruent - Strong","Hard"
"qbb6xqvqpv","VerticalHorizontal",-0.0581,22.5,"VerticalHorizontal_22.5000_-0.0581.png","A",10,871749,0.793,"arrowright","arrowright",0,"Incongruent",0.0581,"Incongruent - Mild","Hard"
"qbb6xqvqpv","VerticalHorizontal",-0.0581,-22.5,"VerticalHorizontal_-22.500_-0.0581.png","A",11,873528,0.672,"arrowright","arrowright",0,"Congruent",0.0581,"Congruent - Mild","Hard"
"qbb6xqvqpv","VerticalHorizontal",-0.0581,-31.5,"VerticalHorizontal_-31.500_-0.0581.png","A",12,875218,0.816,"arrowright","arrowright",0,"Congruent",0.0581,"Congruent - Strong","Hard"
"qbb6xqvqpv","VerticalHorizontal",-0.12339,40.5,"VerticalHorizontal_40.5000_-0.12339.png","A",13,877026,1.357,"arrowleft","arrowright",1,"Incongruent",0.12339,"Incongruent - Strong","Hard"
"qbb6xqvqpv","VerticalHorizontal",0.3,4.5,"VerticalHorizontal_4.50000_0.30000.png","A",14,879443,0.652,"arrowleft","arrowleft",0,"Incongruent",0.3,"Incongruent - Mild","Easy"
"qbb6xqvqpv","VerticalHorizontal",0.0581,-22.5,"VerticalHorizontal_-22.500_0.05810.png","A",15,881147,1.431,"arrowleft","arrowleft",0,"Congruent",0.0581,"Congruent - Mild","Hard"
"qbb6xqvqpv","VerticalHorizontal",0.3,13.5,"VerticalHorizontal_13.5000_0.30000.png","A",16,883269,0.8,"arrowleft","arrowleft",0,"Incongruent",0.3,"Incongruent - Mild","Easy"
"qbb6xqvqpv","VerticalHorizontal",-0.12339,4.5,"VerticalHorizontal_4.50000_-0.12339.png","A",17,884726,1.075,"arrowright","arrowright",0,"Incongruent",0.12339,"Incongruent - Mild","Hard"
"qbb6xqvqpv","VerticalHorizontal",-0.3,13.5,"VerticalHorizontal_13.5000_-0.3000.png","A",18,886828,0.571,"arrowright","arrowright",0,"Incongruent",0.3,"Incongruent - Mild","Easy"
"qbb6xqvqpv","VerticalHorizontal",-0.20298,4.5,"VerticalHorizontal_4.50000_-0.20298.png","A",19,888264,0.897,"arrowright","arrowright",0,"Incongruent",0.20298,"Incongruent - Mild","Easy"
"qbb6xqvqpv","VerticalHorizontal",0.20298,13.5,"VerticalHorizontal_13.5000_0.20298.png","A",20,889971,0.605,"arrowleft","arrowleft",0,"Incongruent",0.20298,"Incongruent - Mild","Easy"
"qbb6xqvqpv","VerticalHorizontal",0.20298,-22.5,"VerticalHorizontal_-22.500_0.20298.png","A",21,891424,0.559,"arrowleft","arrowleft",0,"Congruent",0.20298,"Congruent - Mild","Easy"
"qbb6xqvqpv","VerticalHorizontal",-0.3,22.5,"VerticalHorizontal_22.5000_-0.3000.png","A",22,892758,0.555,"arrowright","arrowright",0,"Incongruent",0.3,"Incongruent - Mild","Easy"
"qbb6xqvqpv","VerticalHorizontal",-0.20298,-31.5,"VerticalHorizontal_-31.500_-0.20298.png","A",23,894385,0.662,"arrowright","arrowright",0,"Congruent",0.20298,"Congruent - Strong","Easy"
"qbb6xqvqpv","VerticalHorizontal",-0.0581,4.5,"VerticalHorizontal_4.50000_-0.0581.png","A",24,895993,1.134,"arrowright","arrowright",0,"Incongruent",0.0581,"Incongruent - Mild","Hard"
"qbb6xqvqpv","VerticalHorizontal",0.12339,-4.5,"VerticalHorizontal_-4.5000_0.12339.png","A",25,897900,0.586,"arrowleft","arrowleft",0,"Congruent",0.12339,"Congruent - Mild","Hard"
"qbb6xqvqpv","VerticalHorizontal",-0.0581,-13.5,"VerticalHorizontal_-13.500_-0.0581.png","A",26,899258,0.61,"arrowright","arrowright",0,"Congruent",0.0581,"Congruent - Mild","Hard"
"qbb6xqvqpv","VerticalHorizontal",-0.3,-40.5,"VerticalHorizontal_-40.500_-0.3000.png","A",27,900622,0.455,"arrowright","arrowright",0,"Congruent",0.3,"Congruent - Strong","Easy"
"qbb6xqvqpv","VerticalHorizontal",0.3,-31.5,"VerticalHorizontal_-31.500_0.30000.png","A",28,901769,0.495,"arrowleft","arrowleft",0,"Congruent",0.3,"Congruent - Strong","Easy"
"qbb6xqvqpv","VerticalHorizontal",-0.3,4.5,"VerticalHorizontal_4.50000_-0.3000.png","A",29,903322,0.445,"arrowright","arrowright",0,"Incongruent",0.3,"Incongruent - Mild","Easy"
"qbb6xqvqpv","VerticalHorizontal",0.3,-4.5,"VerticalHorizontal_-4.5000_0.30000.png","A",30,904763,0.572,"arrowleft","arrowleft",0,"Congruent",0.3,"Congruent - Mild","Easy"
"qbb6xqvqpv","VerticalHorizontal",-0.3,-4.5,"VerticalHorizontal_-4.5000_-0.3000.png","A",31,906387,0.471,"arrowright","arrowright",0,"Congruent",0.3,"Congruent - Mild","Easy"
"qbb6xqvqpv","VerticalHorizontal",-0.12339,-40.5,"VerticalHorizontal_-40.500_-0.12339.png","A",32,907851,0.692,"arrowright","arrowright",0,"Congruent",0.12339,"Congruent - Strong","Hard"
"qbb6xqvqpv","VerticalHorizontal",-0.20298,40.5,"VerticalHorizontal_40.5000_-0.20298.png","A",33,909510,1.548,"arrowright","arrowright",0,"Incongruent",0.20298,"Incongruent - Strong","Easy"
"qbb6xqvqpv","VerticalHorizontal",-0.12339,13.5,"VerticalHorizontal_13.5000_-0.12339.png","A",34,911744,0.863,"arrowright","arrowright",0,"Incongruent",0.12339,"Incongruent - Mild","Hard"
"qbb6xqvqpv","VerticalHorizontal",0.20298,-40.5,"VerticalHorizontal_-40.500_0.20298.png","A",35,913648,0.538,"arrowleft","arrowleft",0,"Congruent",0.20298,"Congruent - Strong","Easy"
"qbb6xqvqpv","VerticalHorizontal",-0.0581,-4.5,"VerticalHorizontal_-4.5000_-0.0581.png","A",36,914996,1.979,"arrowright","arrowright",0,"Congruent",0.0581,"Congruent - Mild","Hard"
"qbb6xqvqpv","VerticalHorizontal",-0.3,-31.5,"VerticalHorizontal_-31.500_-0.3000.png","A",37,917963,0.56,"arrowright","arrowright",0,"Congruent",0.3,"Congruent - Strong","Easy"
"qbb6xqvqpv","VerticalHorizontal",-0.12339,-22.5,"VerticalHorizontal_-22.500_-0.12339.png","A",38,919177,1.219,"arrowright","arrowright",0,"Congruent",0.12339,"Congruent - Mild","Hard"
"qbb6xqvqpv","VerticalHorizontal",-0.3,-22.5,"VerticalHorizontal_-22.500_-0.3000.png","A",39,921290,0.619,"arrowright","arrowright",0,"Congruent",0.3,"Congruent - Mild","Easy"
"qbb6xqvqpv","VerticalHorizontal",-0.12339,-13.5,"VerticalHorizontal_-13.500_-0.12339.png","A",40,922999,0.968,"arrowright","arrowright",0,"Congruent",0.12339,"Congruent - Mild","Hard"
"qbb6xqvqpv","VerticalHorizontal",0.12339,31.5,"VerticalHorizontal_31.5000_0.12339.png","A",41,925017,2.117,"arrowleft","arrowleft",0,"Incongruent",0.12339,"Incongruent - Strong","Hard"
"qbb6xqvqpv","VerticalHorizontal",0.20298,22.5,"VerticalHorizontal_22.5000_0.20298.png","A",43,931867,0.876,"arrowleft","arrowleft",0,"Incongruent",0.20298,"Incongruent - Mild","Easy"
"qbb6xqvqpv","VerticalHorizontal",-0.20298,31.5,"VerticalHorizontal_31.5000_-0.20298.png","A",44,933566,0.612,"arrowright","arrowright",0,"Incongruent",0.20298,"Incongruent - Strong","Easy"
"qbb6xqvqpv","VerticalHorizontal",0.20298,-13.5,"VerticalHorizontal_-13.500_0.20298.png","A",45,935284,0.535,"arrowleft","arrowleft",0,"Congruent",0.20298,"Congruent - Mild","Easy"
"qbb6xqvqpv","VerticalHorizontal",-0.12339,22.5,"VerticalHorizontal_22.5000_-0.12339.png","A",46,936552,0.89,"arrowright","arrowright",0,"Incongruent",0.12339,"Incongruent - Mild","Hard"
"qbb6xqvqpv","VerticalHorizontal",0.3,22.5,"VerticalHorizontal_22.5000_0.30000.png","A",47,938200,0.556,"arrowleft","arrowleft",0,"Incongruent",0.3,"Incongruent - Mild","Easy"
"qbb6xqvqpv","VerticalHorizontal",-0.3,-13.5,"VerticalHorizontal_-13.500_-0.3000.png","A",48,939763,0.491,"arrowright","arrowright",0,"Congruent",0.3,"Congruent - Mild","Easy"
"qbb6xqvqpv","VerticalHorizontal",-0.0581,13.5,"VerticalHorizontal_13.5000_-0.0581.png","A",49,941352,1.55,"arrowright","arrowright",0,"Incongruent",0.0581,"Incongruent - Mild","Hard"
"qbb6xqvqpv","VerticalHorizontal",0.3,31.5,"VerticalHorizontal_31.5000_0.30000.png","A",50,943882,0.559,"arrowleft","arrowleft",0,"Incongruent",0.3,"Incongruent - Strong","Easy"
"qbb6xqvqpv","VerticalHorizontal",0.12339,40.5,"VerticalHorizontal_40.5000_0.12339.png","A",51,945080,2.318,"arrowleft","arrowleft",0,"Incongruent",0.12339,"Incongruent - Strong","Hard"
"qbb6xqvqpv","VerticalHorizontal",0.20298,-31.5,"VerticalHorizontal_-31.500_0.20298.png","A",52,948308,0.433,"arrowleft","arrowleft",0,"Congruent",0.20298,"Congruent - Strong","Easy"
"qbb6xqvqpv","VerticalHorizontal",0.20298,4.5,"VerticalHorizontal_4.50000_0.20298.png","A",53,949619,0.585,"arrowleft","arrowleft",0,"Incongruent",0.20298,"Incongruent - Mild","Easy"
"qbb6xqvqpv","VerticalHorizontal",-0.0581,-40.5,"VerticalHorizontal_-40.500_-0.0581.png","A",54,951232,0.512,"arrowright","arrowright",0,"Congruent",0.0581,"Congruent - Strong","Hard"
"qbb6xqvqpv","VerticalHorizontal",0.0581,31.5,"VerticalHorizontal_31.5000_0.05810.png","A",55,952820,0.827,"arrowright","arrowleft",1,"Incongruent",0.0581,"Incongruent - Strong","Hard"
"qbb6xqvqpv","VerticalHorizontal",0.0581,-40.5,"VerticalHorizontal_-40.500_0.05810.png","A",56,954584,0.715,"arrowleft","arrowleft",0,"Congruent",0.0581,"Congruent - Strong","Hard"
"qbb6xqvqpv","VerticalHorizontal",-0.20298,-40.5,"VerticalHorizontal_-40.500_-0.20298.png","A",57,955942,0.49,"arrowright","arrowright",0,"Congruent",0.20298,"Congruent - Strong","Easy"
"qbb6xqvqpv","VerticalHorizontal",0.12339,13.5,"VerticalHorizontal_13.5000_0.12339.png","A",58,957409,0.737,"arrowleft","arrowleft",0,"Incongruent",0.12339,"Incongruent - Mild","Hard"
"qbb6xqvqpv","VerticalHorizontal",0.0581,-4.5,"VerticalHorizontal_-4.5000_0.05810.png","A",59,958789,1.936,"arrowleft","arrowleft",0,"Congruent",0.0581,"Congruent - Mild","Hard"
"qbb6xqvqpv","VerticalHorizontal",0.0581,-13.5,"VerticalHorizontal_-13.500_0.05810.png","A",60,961357,1.302,"arrowleft","arrowleft",0,"Congruent",0.0581,"Congruent - Mild","Hard"
"qbb6xqvqpv","VerticalHorizontal",0.12339,-40.5,"VerticalHorizontal_-40.500_0.12339.png","A",61,963429,0.548,"arrowleft","arrowleft",0,"Congruent",0.12339,"Congruent - Strong","Hard"
"qbb6xqvqpv","VerticalHorizontal",-0.20298,13.5,"VerticalHorizontal_13.5000_-0.20298.png","A",62,964972,0.592,"arrowright","arrowright",0,"Incongruent",0.20298,"Incongruent - Mild","Easy"
"qbb6xqvqpv","VerticalHorizontal",0.12339,22.5,"VerticalHorizontal_22.5000_0.12339.png","A",63,966656,0.617,"arrowleft","arrowleft",0,"Incongruent",0.12339,"Incongruent - Mild","Hard"
"qbb6xqvqpv","VerticalHorizontal",0.3,40.5,"VerticalHorizontal_40.5000_0.30000.png","A",64,967889,0.545,"arrowleft","arrowleft",0,"Incongruent",0.3,"Incongruent - Strong","Easy"
"qbb6xqvqpv","VerticalHorizontal",0.12339,-22.5,"VerticalHorizontal_-22.500_0.12339.png","A",65,969324,0.548,"arrowleft","arrowleft",0,"Congruent",0.12339,"Congruent - Mild","Hard"
"qbb6xqvqpv","VerticalHorizontal",0.20298,31.5,"VerticalHorizontal_31.5000_0.20298.png","A",67,974595,0.872,"arrowleft","arrowleft",0,"Incongruent",0.20298,"Incongruent - Strong","Easy"
"qbb6xqvqpv","VerticalHorizontal",0.0581,4.5,"VerticalHorizontal_4.50000_0.05810.png","A",68,976281,1.077,"arrowleft","arrowleft",0,"Incongruent",0.0581,"Incongruent - Mild","Hard"
"qbb6xqvqpv","VerticalHorizontal",-0.20298,-22.5,"VerticalHorizontal_-22.500_-0.20298.png","A",69,978426,0.519,"arrowright","arrowright",0,"Congruent",0.20298,"Congruent - Mild","Easy"
"qbb6xqvqpv","VerticalHorizontal",0.12339,-13.5,"VerticalHorizontal_-13.500_0.12339.png","A",70,979699,0.495,"arrowleft","arrowleft",0,"Congruent",0.12339,"Congruent - Mild","Hard"
"qbb6xqvqpv","VerticalHorizontal",-0.0581,31.5,"VerticalHorizontal_31.5000_-0.0581.png","A",71,981211,1.941,"arrowleft","arrowright",1,"Incongruent",0.0581,"Incongruent - Strong","Hard"
"qbb6xqvqpv","VerticalHorizontal",-0.12339,-31.5,"VerticalHorizontal_-31.500_-0.12339.png","A",72,983843,0.536,"arrowright","arrowright",0,"Congruent",0.12339,"Congruent - Strong","Hard"
"qbb6xqvqpv","VerticalHorizontal",-0.3,40.5,"VerticalHorizontal_40.5000_-0.3000.png","A",73,985290,0.662,"arrowright","arrowright",0,"Incongruent",0.3,"Incongruent - Strong","Easy"
"qbb6xqvqpv","VerticalHorizontal",-0.20298,-13.5,"VerticalHorizontal_-13.500_-0.20298.png","A",74,986904,0.639,"arrowright","arrowright",0,"Congruent",0.20298,"Congruent - Mild","Easy"
"qbb6xqvqpv","VerticalHorizontal",0.3,-40.5,"VerticalHorizontal_-40.500_0.30000.png","A",75,988523,0.517,"arrowleft","arrowleft",0,"Congruent",0.3,"Congruent - Strong","Easy"
"qbb6xqvqpv","VerticalHorizontal",0.0581,-31.5,"VerticalHorizontal_-31.500_0.05810.png","A",77,993757,0.682,"arrowleft","arrowleft",0,"Congruent",0.0581,"Congruent - Strong","Hard"
"qbb6xqvqpv","VerticalHorizontal",-0.20298,-4.5,"VerticalHorizontal_-4.5000_-0.20298.png","A",78,995275,0.508,"arrowright","arrowright",0,"Congruent",0.20298,"Congruent - Mild","Easy"
"qbb6xqvqpv","VerticalHorizontal",0.3,-22.5,"VerticalHorizontal_-22.500_0.30000.png","A",79,996402,0.414,"arrowleft","arrowleft",0,"Congruent",0.3,"Congruent - Mild","Easy"
"qbb6xqvqpv","VerticalHorizontal",0.12339,4.5,"VerticalHorizontal_4.50000_0.12339.png","A",80,997872,0.667,"arrowleft","arrowleft",0,"Incongruent",0.12339,"Incongruent - Mild","Hard"
"qbb6xqvqpv","MullerLyer",-0.1337,-18,"MullerLyer_-18.000_-0.1337.png","B",2,1182280,0.782,"arrowdown","arrowdown",0,"Congruent",0.1337,"Congruent - Strong","Hard"
"qbb6xqvqpv","MullerLyer",-0.045,30,"MullerLyer_30.0000_-0.0450.png","B",3,1184158,0.789,"arrowup","arrowdown",1,"Incongruent",0.045,"Incongruent - Strong","Hard"
"qbb6xqvqpv","MullerLyer",-0.37364,12,"MullerLyer_12.0000_-0.37364.png","B",4,1185706,0.917,"arrowdown","arrowdown",0,"Incongruent",0.37364,"Incongruent - Mild","Easy"
"qbb6xqvqpv","MullerLyer",0.24183,24,"MullerLyer_24.0000_0.24183.png","B",5,1187428,1.835,"arrowup","arrowup",0,"Incongruent",0.24183,"Incongruent - Strong","Easy"
"qbb6xqvqpv","MullerLyer",0.045,-30,"MullerLyer_-30.000_0.04500.png","B",6,1190133,0.668,"arrowup","arrowup",0,"Congruent",0.045,"Congruent - Strong","Hard"
"qbb6xqvqpv","MullerLyer",0.37364,6,"MullerLyer_6.00000_0.37364.png","B",7,1191444,0.656,"arrowup","arrowup",0,"Incongruent",0.37364,"Incongruent - Mild","Easy"
"qbb6xqvqpv","MullerLyer",-0.37364,-12,"MullerLyer_-12.000_-0.37364.png","B",8,1192982,0.789,"arrowdown","arrowdown",0,"Congruent",0.37364,"Congruent - Mild","Easy"
"qbb6xqvqpv","MullerLyer",0.24183,6,"MullerLyer_6.00000_0.24183.png","B",9,1194734,1.204,"arrowup","arrowup",0,"Incongruent",0.24183,"Incongruent - Mild","Easy"
"qbb6xqvqpv","MullerLyer",0.37364,24,"MullerLyer_24.0000_0.37364.png","B",10,1196937,1.79,"arrowup","arrowup",0,"Incongruent",0.37364,"Incongruent - Strong","Easy"
"qbb6xqvqpv","MullerLyer",-0.37364,18,"MullerLyer_18.0000_-0.37364.png","B",11,1199578,0.849,"arrowdown","arrowdown",0,"Incongruent",0.37364,"Incongruent - Strong","Easy"
"qbb6xqvqpv","MullerLyer",-0.045,24,"MullerLyer_24.0000_-0.0450.png","B",12,1201266,0.929,"arrowup","arrowdown",1,"Incongruent",0.045,"Incongruent - Strong","Hard"
"qbb6xqvqpv","MullerLyer",0.37364,-30,"MullerLyer_-30.000_0.37364.png","B",13,1202987,0.685,"arrowup","arrowup",0,"Congruent",0.37364,"Congruent - Strong","Easy"
"qbb6xqvqpv","MullerLyer",-0.1337,-6,"MullerLyer_-6.0000_-0.1337.png","B",15,1208176,0.842,"arrowdown","arrowdown",0,"Congruent",0.1337,"Congruent - Mild","Hard"
"qbb6xqvqpv","MullerLyer",0.24183,-24,"MullerLyer_-24.000_0.24183.png","B",17,1213725,0.698,"arrowup","arrowup",0,"Congruent",0.24183,"Congruent - Strong","Easy"
"qbb6xqvqpv","MullerLyer",-0.045,-18,"MullerLyer_-18.000_-0.0450.png","B",18,1215165,0.781,"arrowdown","arrowdown",0,"Congruent",0.045,"Congruent - Strong","Hard"
"qbb6xqvqpv","MullerLyer",-0.24183,12,"MullerLyer_12.0000_-0.24183.png","B",19,1216584,0.858,"arrowdown","arrowdown",0,"Incongruent",0.24183,"Incongruent - Mild","Easy"
"qbb6xqvqpv","MullerLyer",0.1337,-24,"MullerLyer_-24.000_0.13370.png","B",21,1225087,0.663,"arrowup","arrowup",0,"Congruent",0.1337,"Congruent - Strong","Hard"
"qbb6xqvqpv","MullerLyer",-0.37364,-24,"MullerLyer_-24.000_-0.37364.png","B",22,1226678,0.492,"arrowdown","arrowdown",0,"Congruent",0.37364,"Congruent - Strong","Easy"
"qbb6xqvqpv","MullerLyer",0.37364,-24,"MullerLyer_-24.000_0.37364.png","B",23,1228188,0.503,"arrowup","arrowup",0,"Congruent",0.37364,"Congruent - Strong","Easy"
"qbb6xqvqpv","MullerLyer",0.045,24,"MullerLyer_24.0000_0.04500.png","B",24,1229512,0.729,"arrowdown","arrowup",1,"Incongruent",0.045,"Incongruent - Strong","Hard"
"qbb6xqvqpv","MullerLyer",0.37364,-6,"MullerLyer_-6.0000_0.37364.png","B",25,1231280,0.501,"arrowup","arrowup",0,"Congruent",0.37364,"Congruent - Mild","Easy"
"qbb6xqvqpv","MullerLyer",-0.1337,-12,"MullerLyer_-12.000_-0.1337.png","B",26,1232574,0.489,"arrowdown","arrowdown",0,"Congruent",0.1337,"Congruent - Mild","Hard"
"qbb6xqvqpv","MullerLyer",-0.24183,-30,"MullerLyer_-30.000_-0.24183.png","B",27,1233998,0.639,"arrowdown","arrowdown",0,"Congruent",0.24183,"Congruent - Strong","Easy"
"qbb6xqvqpv","MullerLyer",0.045,6,"MullerLyer_6.00000_0.04500.png","B",28,1235322,1.065,"arrowdown","arrowup",1,"Incongruent",0.045,"Incongruent - Mild","Hard"
"qbb6xqvqpv","MullerLyer",0.045,-6,"MullerLyer_-6.0000_0.04500.png","B",29,1237051,1.372,"arrowup","arrowup",0,"Congruent",0.045,"Congruent - Mild","Hard"
"qbb6xqvqpv","MullerLyer",-0.1337,-24,"MullerLyer_-24.000_-0.1337.png","B",30,1239299,0.688,"arrowdown","arrowdown",0,"Congruent",0.1337,"Congruent - Strong","Hard"
"qbb6xqvqpv","MullerLyer",0.37364,18,"MullerLyer_18.0000_0.37364.png","B",31,1240874,0.82,"arrowup","arrowup",0,"Incongruent",0.37364,"Incongruent - Strong","Easy"
"qbb6xqvqpv","MullerLyer",-0.24183,-24,"MullerLyer_-24.000_-0.24183.png","B",32,1242524,0.566,"arrowdown","arrowdown",0,"Congruent",0.24183,"Congruent - Strong","Easy"
"qbb6xqvqpv","MullerLyer",0.045,12,"MullerLyer_12.0000_0.04500.png","B",33,1243962,1.624,"arrowdown","arrowup",1,"Incongruent",0.045,"Incongruent - Mild","Hard"
"qbb6xqvqpv","MullerLyer",-0.37364,-30,"MullerLyer_-30.000_-0.37364.png","B",34,1246320,0.668,"arrowdown","arrowdown",0,"Congruent",0.37364,"Congruent - Strong","Easy"
"qbb6xqvqpv","MullerLyer",-0.1337,12,"MullerLyer_12.0000_-0.1337.png","B",35,1247999,1.945,"arrowup","arrowdown",1,"Incongruent",0.1337,"Incongruent - Mild","Hard"
"qbb6xqvqpv","MullerLyer",0.1337,-30,"MullerLyer_-30.000_0.13370.png","B",36,1250981,0.596,"arrowup","arrowup",0,"Congruent",0.1337,"Congruent - Strong","Hard"
"qbb6xqvqpv","MullerLyer",-0.37364,24,"MullerLyer_24.0000_-0.37364.png","B",37,1252607,0.795,"arrowdown","arrowdown",0,"Incongruent",0.37364,"Incongruent - Strong","Easy"
"qbb6xqvqpv","MullerLyer",-0.045,-6,"MullerLyer_-6.0000_-0.0450.png","B",38,1254072,0.817,"arrowdown","arrowdown",0,"Congruent",0.045,"Congruent - Mild","Hard"
"qbb6xqvqpv","MullerLyer",0.1337,-6,"MullerLyer_-6.0000_0.13370.png","B",39,1255935,1.119,"arrowup","arrowup",0,"Congruent",0.1337,"Congruent - Mild","Hard"
"qbb6xqvqpv","MullerLyer",0.1337,18,"MullerLyer_18.0000_0.13370.png","B",40,1258002,1.308,"arrowdown","arrowup",1,"Incongruent",0.1337,"Incongruent - Strong","Hard"
"qbb6xqvqpv","MullerLyer",-0.045,-12,"MullerLyer_-12.000_-0.0450.png","B",41,1259977,0.564,"arrowdown","arrowdown",0,"Congruent",0.045,"Congruent - Mild","Hard"
"qbb6xqvqpv","MullerLyer",-0.24183,-12,"MullerLyer_-12.000_-0.24183.png","B",44,1268122,0.691,"arrowdown","arrowdown",0,"Congruent",0.24183,"Congruent - Mild","Easy"
"qbb6xqvqpv","MullerLyer",0.24183,-6,"MullerLyer_-6.0000_0.24183.png","B",45,1269838,0.863,"arrowup","arrowup",0,"Congruent",0.24183,"Congruent - Mild","Easy"
"qbb6xqvqpv","MullerLyer",-0.1337,6,"MullerLyer_6.00000_-0.1337.png","B",47,1276454,2.034,"arrowdown","arrowdown",0,"Incongruent",0.1337,"Incongruent - Mild","Hard"
"qbb6xqvqpv","MullerLyer",0.24183,-12,"MullerLyer_-12.000_0.24183.png","B",48,1279265,0.691,"arrowup","arrowup",0,"Congruent",0.24183,"Congruent - Mild","Easy"
"qbb6xqvqpv","MullerLyer",0.24183,-30,"MullerLyer_-30.000_0.24183.png","B",49,1281011,0.588,"arrowup","arrowup",0,"Congruent",0.24183,"Congruent - Strong","Easy"
"qbb6xqvqpv","MullerLyer",-0.24183,6,"MullerLyer_6.00000_-0.24183.png","B",50,1282246,0.887,"arrowdown","arrowdown",0,"Incongruent",0.24183,"Incongruent - Mild","Easy"
"qbb6xqvqpv","MullerLyer",-0.1337,-30,"MullerLyer_-30.000_-0.1337.png","B",52,1288530,1.03,"arrowdown","arrowdown",0,"Congruent",0.1337,"Congruent - Strong","Hard"
"qbb6xqvqpv","MullerLyer",0.24183,-18,"MullerLyer_-18.000_0.24183.png","B",53,1290456,0.672,"arrowup","arrowup",0,"Congruent",0.24183,"Congruent - Strong","Easy"
"qbb6xqvqpv","MullerLyer",0.1337,-12,"MullerLyer_-12.000_0.13370.png","B",54,1291919,0.937,"arrowup","arrowup",0,"Congruent",0.1337,"Congruent - Mild","Hard"
"qbb6xqvqpv","MullerLyer",0.37364,30,"MullerLyer_30.0000_0.37364.png","B",55,1293924,1.234,"arrowup","arrowup",0,"Incongruent",0.37364,"Incongruent - Strong","Easy"
"qbb6xqvqpv","MullerLyer",-0.045,18,"MullerLyer_18.0000_-0.0450.png","B",56,1296241,0.796,"arrowup","arrowdown",1,"Incongruent",0.045,"Incongruent - Strong","Hard"
"qbb6xqvqpv","MullerLyer",-0.1337,18,"MullerLyer_18.0000_-0.1337.png","B",57,1297709,0.964,"arrowup","arrowdown",1,"Incongruent",0.1337,"Incongruent - Strong","Hard"
"qbb6xqvqpv","MullerLyer",-0.37364,-18,"MullerLyer_-18.000_-0.37364.png","B",58,1299281,0.832,"arrowdown","arrowdown",0,"Congruent",0.37364,"Congruent - Strong","Easy"
"qbb6xqvqpv","MullerLyer",-0.37364,6,"MullerLyer_6.00000_-0.37364.png","B",59,1300892,0.591,"arrowdown","arrowdown",0,"Incongruent",0.37364,"Incongruent - Mild","Easy"
"qbb6xqvqpv","MullerLyer",0.37364,-12,"MullerLyer_-12.000_0.37364.png","B",60,1302204,0.73,"arrowup","arrowup",0,"Congruent",0.37364,"Congruent - Mild","Easy"
"qbb6xqvqpv","MullerLyer",0.045,-24,"MullerLyer_-24.000_0.04500.png","B",61,1303640,0.737,"arrowup","arrowup",0,"Congruent",0.045,"Congruent - Strong","Hard"
"qbb6xqvqpv","MullerLyer",0.24183,12,"MullerLyer_12.0000_0.24183.png","B",62,1305440,1.967,"arrowup","arrowup",0,"Incongruent",0.24183,"Incongruent - Mild","Easy"
"qbb6xqvqpv","MullerLyer",0.045,-12,"MullerLyer_-12.000_0.04500.png","B",64,1315207,0.737,"arrowup","arrowup",0,"Congruent",0.045,"Congruent - Mild","Hard"
"qbb6xqvqpv","MullerLyer",0.37364,12,"MullerLyer_12.0000_0.37364.png","B",65,1316875,0.835,"arrowup","arrowup",0,"Incongruent",0.37364,"Incongruent - Mild","Easy"
"qbb6xqvqpv","MullerLyer",-0.045,-30,"MullerLyer_-30.000_-0.0450.png","B",66,1318688,0.728,"arrowdown","arrowdown",0,"Congruent",0.045,"Congruent - Strong","Hard"
"qbb6xqvqpv","MullerLyer",-0.045,-24,"MullerLyer_-24.000_-0.0450.png","B",67,1320093,1.037,"arrowdown","arrowdown",0,"Congruent",0.045,"Congruent - Strong","Hard"
"qbb6xqvqpv","MullerLyer",0.045,30,"MullerLyer_30.0000_0.04500.png","B",68,1322008,1.005,"arrowdown","arrowup",1,"Incongruent",0.045,"Incongruent - Strong","Hard"
"qbb6xqvqpv","MullerLyer",0.045,18,"MullerLyer_18.0000_0.04500.png","B",69,1323964,1.227,"arrowdown","arrowup",1,"Incongruent",0.045,"Incongruent - Strong","Hard"
"qbb6xqvqpv","MullerLyer",0.1337,6,"MullerLyer_6.00000_0.13370.png","B",70,1326011,1.384,"arrowup","arrowup",0,"Incongruent",0.1337,"Incongruent - Mild","Hard"
"qbb6xqvqpv","MullerLyer",-0.37364,-6,"MullerLyer_-6.0000_-0.37364.png","B",71,1328255,0.744,"arrowdown","arrowdown",0,"Congruent",0.37364,"Congruent - Mild","Easy"
"qbb6xqvqpv","MullerLyer",0.1337,24,"MullerLyer_24.0000_0.13370.png","B",72,1329661,1.372,"arrowdown","arrowup",1,"Incongruent",0.1337,"Incongruent - Strong","Hard"
"qbb6xqvqpv","MullerLyer",0.1337,30,"MullerLyer_30.0000_0.13370.png","B",73,1331930,0.996,"arrowdown","arrowup",1,"Incongruent",0.1337,"Incongruent - Strong","Hard"
"qbb6xqvqpv","MullerLyer",0.045,-18,"MullerLyer_-18.000_0.04500.png","B",74,1333815,1.01,"arrowup","arrowup",0,"Congruent",0.045,"Congruent - Strong","Hard"
"qbb6xqvqpv","MullerLyer",-0.24183,-18,"MullerLyer_-18.000_-0.24183.png","B",75,1335848,1.223,"arrowdown","arrowdown",0,"Congruent",0.24183,"Congruent - Strong","Easy"
"qbb6xqvqpv","MullerLyer",0.1337,-18,"MullerLyer_-18.000_0.13370.png","B",77,1343631,0.678,"arrowup","arrowup",0,"Congruent",0.1337,"Congruent - Strong","Hard"
"qbb6xqvqpv","MullerLyer",0.37364,-18,"MullerLyer_-18.000_0.37364.png","B",78,1345208,0.604,"arrowup","arrowup",0,"Congruent",0.37364,"Congruent - Strong","Easy"
"qbb6xqvqpv","MullerLyer",-0.24183,-6,"MullerLyer_-6.0000_-0.24183.png","B",79,1346677,0.673,"arrowdown","arrowdown",0,"Congruent",0.24183,"Congruent - Mild","Easy"
"qbb6xqvqpv","MullerLyer",-0.1337,24,"MullerLyer_24.0000_-0.1337.png","B",80,1348354,0.757,"arrowup","arrowdown",1,"Incongruent",0.1337,"Incongruent - Strong","Hard"
"qbb6xqvqpv","Ebbinghaus",-0.2687,-1.2,"Ebbinghaus_-1.2000_-0.2687.png","B",2,1359757,0.705,"arrowright","arrowright",0,"Congruent",0.2687,"Congruent - Strong","Easy"
"qbb6xqvqpv","Ebbinghaus",0.2687,0.9,"Ebbinghaus_0.90000_0.26870.png","B",3,1361162,1.267,"arrowleft","arrowleft",0,"Incongruent",0.2687,"Incongruent - Strong","Easy"
"qbb6xqvqpv","Ebbinghaus",-0.41515,1.5,"Ebbinghaus_1.50000_-0.41515.png","B",4,1363466,1.392,"arrowright","arrowright",0,"Incongruent",0.41515,"Incongruent - Strong","Easy"
"qbb6xqvqpv","Ebbinghaus",0.14856,0.3,"Ebbinghaus_0.30000_0.14856.png","B",5,1365662,1.66,"arrowleft","arrowleft",0,"Incongruent",0.14856,"Incongruent - Mild","Hard"
"qbb6xqvqpv","Ebbinghaus",0.2687,0.6,"Ebbinghaus_0.60000_0.26870.png","B",6,1368224,0.988,"arrowleft","arrowleft",0,"Incongruent",0.2687,"Incongruent - Mild","Easy"
"qbb6xqvqpv","Ebbinghaus",-0.14856,1.5,"Ebbinghaus_1.50000_-0.14856.png","B",7,1369923,0.979,"arrowleft","arrowright",1,"Incongruent",0.14856,"Incongruent - Strong","Hard"
"qbb6xqvqpv","Ebbinghaus",-0.2687,-1.5,"Ebbinghaus_-1.5000_-0.2687.png","B",8,1371910,0.856,"arrowright","arrowright",0,"Congruent",0.2687,"Congruent - Strong","Easy"
"qbb6xqvqpv","Ebbinghaus",-0.14856,-0.3,"Ebbinghaus_-0.3000_-0.14856.png","B",10,1377047,0.919,"arrowright","arrowright",0,"Congruent",0.14856,"Congruent - Mild","Hard"
"qbb6xqvqpv","Ebbinghaus",0.2687,-1.5,"Ebbinghaus_-1.5000_0.26870.png","B",11,1378975,1.002,"arrowleft","arrowleft",0,"Congruent",0.2687,"Congruent - Strong","Easy"
"qbb6xqvqpv","Ebbinghaus",0.41515,-0.9,"Ebbinghaus_-0.9000_0.41515.png","B",12,1380709,0.504,"arrowleft","arrowleft",0,"Congruent",0.41515,"Congruent - Strong","Easy"
"qbb6xqvqpv","Ebbinghaus",-0.14856,0.3,"Ebbinghaus_0.30000_-0.14856.png","B",13,1382076,0.754,"arrowright","arrowright",0,"Incongruent",0.14856,"Incongruent - Mild","Hard"
"qbb6xqvqpv","Ebbinghaus",-0.14856,-1.2,"Ebbinghaus_-1.2000_-0.14856.png","B",14,1383635,0.66,"arrowright","arrowright",0,"Congruent",0.14856,"Congruent - Strong","Hard"
"qbb6xqvqpv","Ebbinghaus",0.05,-0.3,"Ebbinghaus_-0.3000_0.05000.png","B",15,1385022,0.976,"arrowleft","arrowleft",0,"Congruent",0.05,"Congruent - Mild","Hard"
"qbb6xqvqpv","Ebbinghaus",0.14856,-1.2,"Ebbinghaus_-1.2000_0.14856.png","B",16,1386662,0.744,"arrowleft","arrowleft",0,"Congruent",0.14856,"Congruent - Strong","Hard"
"qbb6xqvqpv","Ebbinghaus",-0.41515,-1.5,"Ebbinghaus_-1.5000_-0.41515.png","B",17,1388498,0.6,"arrowright","arrowright",0,"Congruent",0.41515,"Congruent - Strong","Easy"
"qbb6xqvqpv","Ebbinghaus",0.14856,-1.5,"Ebbinghaus_-1.5000_0.14856.png","B",18,1390064,0.934,"arrowleft","arrowleft",0,"Congruent",0.14856,"Congruent - Strong","Hard"
"qbb6xqvqpv","Ebbinghaus",-0.05,0.6,"Ebbinghaus_0.60000_-0.0500.png","B",19,1392092,1.649,"arrowleft","arrowright",1,"Incongruent",0.05,"Incongruent - Mild","Hard"
"qbb6xqvqpv","Ebbinghaus",-0.41515,0.3,"Ebbinghaus_0.30000_-0.41515.png","B",21,1399048,0.73,"arrowright","arrowright",0,"Incongruent",0.41515,"Incongruent - Mild","Easy"
"qbb6xqvqpv","Ebbinghaus",-0.2687,-0.9,"Ebbinghaus_-0.9000_-0.2687.png","B",23,1404426,0.762,"arrowright","arrowright",0,"Congruent",0.2687,"Congruent - Strong","Easy"
"qbb6xqvqpv","Ebbinghaus",0.05,-0.6,"Ebbinghaus_-0.6000_0.05000.png","B",24,1406060,0.878,"arrowleft","arrowleft",0,"Congruent",0.05,"Congruent - Mild","Hard"
"qbb6xqvqpv","Ebbinghaus",-0.2687,1.2,"Ebbinghaus_1.20000_-0.2687.png","B",25,1407698,1.082,"arrowright","arrowright",0,"Incongruent",0.2687,"Incongruent - Strong","Easy"
"qbb6xqvqpv","Ebbinghaus",0.2687,-0.3,"Ebbinghaus_-0.3000_0.26870.png","B",27,1413626,0.746,"arrowleft","arrowleft",0,"Congruent",0.2687,"Congruent - Mild","Easy"
"qbb6xqvqpv","Ebbinghaus",0.41515,1.5,"Ebbinghaus_1.50000_0.41515.png","B",28,1415313,1.675,"arrowleft","arrowleft",0,"Incongruent",0.41515,"Incongruent - Strong","Easy"
"qbb6xqvqpv","Ebbinghaus",-0.41515,-0.9,"Ebbinghaus_-0.9000_-0.41515.png","B",29,1417816,0.555,"arrowright","arrowright",0,"Congruent",0.41515,"Congruent - Strong","Easy"
"qbb6xqvqpv","Ebbinghaus",-0.41515,0.9,"Ebbinghaus_0.90000_-0.41515.png","B",30,1419247,0.881,"arrowright","arrowright",0,"Incongruent",0.41515,"Incongruent - Strong","Easy"
"qbb6xqvqpv","Ebbinghaus",-0.05,-0.3,"Ebbinghaus_-0.3000_-0.0500.png","B",31,1421110,0.846,"arrowright","arrowright",0,"Congruent",0.05,"Congruent - Mild","Hard"
"qbb6xqvqpv","Ebbinghaus",-0.05,1.5,"Ebbinghaus_1.50000_-0.0500.png","B",32,1423060,0.759,"arrowleft","arrowright",1,"Incongruent",0.05,"Incongruent - Strong","Hard"
"qbb6xqvqpv","Ebbinghaus",-0.41515,-0.6,"Ebbinghaus_-0.6000_-0.41515.png","B",33,1424776,0.652,"arrowright","arrowright",0,"Congruent",0.41515,"Congruent - Mild","Easy"
"qbb6xqvqpv","Ebbinghaus",-0.14856,-0.6,"Ebbinghaus_-0.6000_-0.14856.png","B",34,1426510,0.999,"arrowright","arrowright",0,"Congruent",0.14856,"Congruent - Mild","Hard"
"qbb6xqvqpv","Ebbinghaus",-0.05,-0.9,"Ebbinghaus_-0.9000_-0.0500.png","B",35,1428467,1.566,"arrowright","arrowright",0,"Congruent",0.05,"Congruent - Strong","Hard"
"qbb6xqvqpv","Ebbinghaus",0.2687,0.3,"Ebbinghaus_0.30000_0.26870.png","B",36,1430939,1.565,"arrowleft","arrowleft",0,"Incongruent",0.2687,"Incongruent - Mild","Easy"
"qbb6xqvqpv","Ebbinghaus",-0.2687,0.3,"Ebbinghaus_0.30000_-0.2687.png","B",37,1433187,1.232,"arrowright","arrowright",0,"Incongruent",0.2687,"Incongruent - Mild","Easy"
"qbb6xqvqpv","Ebbinghaus",-0.41515,-0.3,"Ebbinghaus_-0.3000_-0.41515.png","B",38,1435502,0.681,"arrowright","arrowright",0,"Congruent",0.41515,"Congruent - Mild","Easy"
"qbb6xqvqpv","Ebbinghaus",-0.41515,-1.2,"Ebbinghaus_-1.2000_-0.41515.png","B",39,1437074,0.659,"arrowright","arrowright",0,"Congruent",0.41515,"Congruent - Strong","Easy"
"qbb6xqvqpv","Ebbinghaus",-0.41515,1.2,"Ebbinghaus_1.20000_-0.41515.png","B",40,1438498,1.745,"arrowright","arrowright",0,"Incongruent",0.41515,"Incongruent - Strong","Easy"
"qbb6xqvqpv","Ebbinghaus",0.41515,-0.3,"Ebbinghaus_-0.3000_0.41515.png","B",42,1446501,0.577,"arrowleft","arrowleft",0,"Congruent",0.41515,"Congruent - Mild","Easy"
"qbb6xqvqpv","Ebbinghaus",-0.05,-1.5,"Ebbinghaus_-1.5000_-0.0500.png","B",44,1451315,1.058,"arrowright","arrowright",0,"Congruent",0.05,"Congruent - Strong","Hard"
"qbb6xqvqpv","Ebbinghaus",0.41515,-0.6,"Ebbinghaus_-0.6000_0.41515.png","B",45,1453301,0.795,"arrowleft","arrowleft",0,"Congruent",0.41515,"Congruent - Mild","Easy"
"qbb6xqvqpv","Ebbinghaus",0.2687,-1.2,"Ebbinghaus_-1.2000_0.26870.png","B",46,1455101,0.954,"arrowleft","arrowleft",0,"Congruent",0.2687,"Congruent - Strong","Easy"
"qbb6xqvqpv","Ebbinghaus",0.14856,-0.6,"Ebbinghaus_-0.6000_0.14856.png","B",47,1457097,0.988,"arrowleft","arrowleft",0,"Congruent",0.14856,"Congruent - Mild","Hard"
"qbb6xqvqpv","Ebbinghaus",-0.14856,-1.5,"Ebbinghaus_-1.5000_-0.14856.png","B",48,1459188,1.223,"arrowright","arrowright",0,"Congruent",0.14856,"Congruent - Strong","Hard"
"qbb6xqvqpv","Ebbinghaus",0.05,-0.9,"Ebbinghaus_-0.9000_0.05000.png","B",49,1461465,0.987,"arrowleft","arrowleft",0,"Congruent",0.05,"Congruent - Strong","Hard"
"qbb6xqvqpv","Ebbinghaus",0.05,1.2,"Ebbinghaus_1.20000_0.05000.png","B",50,1463383,0.979,"arrowright","arrowleft",1,"Incongruent",0.05,"Incongruent - Strong","Hard"
"qbb6xqvqpv","Ebbinghaus",0.14856,-0.3,"Ebbinghaus_-0.3000_0.14856.png","B",52,1468460,0.856,"arrowleft","arrowleft",0,"Congruent",0.14856,"Congruent - Mild","Hard"
"qbb6xqvqpv","Ebbinghaus",0.05,-1.2,"Ebbinghaus_-1.2000_0.05000.png","B",53,1470418,0.686,"arrowleft","arrowleft",0,"Congruent",0.05,"Congruent - Strong","Hard"
"qbb6xqvqpv","Ebbinghaus",0.41515,-1.2,"Ebbinghaus_-1.2000_0.41515.png","B",57,1485884,0.707,"arrowleft","arrowleft",0,"Congruent",0.41515,"Congruent - Strong","Easy"
"qbb6xqvqpv","Ebbinghaus",0.41515,-1.5,"Ebbinghaus_-1.5000_0.41515.png","B",59,1491191,0.65,"arrowleft","arrowleft",0,"Congruent",0.41515,"Congruent - Strong","Easy"
"qbb6xqvqpv","Ebbinghaus",0.41515,0.3,"Ebbinghaus_0.30000_0.41515.png","B",60,1492609,0.881,"arrowleft","arrowleft",0,"Incongruent",0.41515,"Incongruent - Mild","Easy"
"qbb6xqvqpv","Ebbinghaus",-0.41515,0.6,"Ebbinghaus_0.60000_-0.41515.png","B",61,1494372,0.702,"arrowright","arrowright",0,"Incongruent",0.41515,"Incongruent - Mild","Easy"
"qbb6xqvqpv","Ebbinghaus",-0.05,-1.2,"Ebbinghaus_-1.2000_-0.0500.png","B",62,1495981,0.875,"arrowright","arrowright",0,"Congruent",0.05,"Congruent - Strong","Hard"
"qbb6xqvqpv","Ebbinghaus",0.2687,-0.6,"Ebbinghaus_-0.6000_0.26870.png","B",63,1497923,0.828,"arrowleft","arrowleft",0,"Congruent",0.2687,"Congruent - Mild","Easy"
"qbb6xqvqpv","Ebbinghaus",0.14856,1.5,"Ebbinghaus_1.50000_0.14856.png","B",64,1499865,0.976,"arrowright","arrowleft",1,"Incongruent",0.14856,"Incongruent - Strong","Hard"
"qbb6xqvqpv","Ebbinghaus",-0.2687,0.6,"Ebbinghaus_0.60000_-0.2687.png","B",66,1507006,0.894,"arrowright","arrowright",0,"Incongruent",0.2687,"Incongruent - Mild","Easy"
"qbb6xqvqpv","Ebbinghaus",0.14856,-0.9,"Ebbinghaus_-0.9000_0.14856.png","B",67,1508959,1.032,"arrowleft","arrowleft",0,"Congruent",0.14856,"Congruent - Strong","Hard"
"qbb6xqvqpv","Ebbinghaus",-0.14856,-0.9,"Ebbinghaus_-0.9000_-0.14856.png","B",68,1510985,0.638,"arrowright","arrowright",0,"Congruent",0.14856,"Congruent - Strong","Hard"
"qbb6xqvqpv","Ebbinghaus",-0.14856,1.2,"Ebbinghaus_1.20000_-0.14856.png","B",69,1512427,0.984,"arrowleft","arrowright",1,"Incongruent",0.14856,"Incongruent - Strong","Hard"
"qbb6xqvqpv","Ebbinghaus",0.05,-1.5,"Ebbinghaus_-1.5000_0.05000.png","B",70,1514478,0.626,"arrowleft","arrowleft",0,"Congruent",0.05,"Congruent - Strong","Hard"
"qbb6xqvqpv","Ebbinghaus",-0.14856,0.9,"Ebbinghaus_0.90000_-0.14856.png","B",71,1515948,0.714,"arrowright","arrowright",0,"Incongruent",0.14856,"Incongruent - Strong","Hard"
"qbb6xqvqpv","Ebbinghaus",0.14856,0.6,"Ebbinghaus_0.60000_0.14856.png","B",72,1517651,1.01,"arrowleft","arrowleft",0,"Incongruent",0.14856,"Incongruent - Mild","Hard"
"qbb6xqvqpv","Ebbinghaus",-0.2687,-0.6,"Ebbinghaus_-0.6000_-0.2687.png","B",73,1519597,0.507,"arrowright","arrowright",0,"Congruent",0.2687,"Congruent - Mild","Easy"
"qbb6xqvqpv","Ebbinghaus",-0.14856,0.6,"Ebbinghaus_0.60000_-0.14856.png","B",74,1520967,0.714,"arrowright","arrowright",0,"Incongruent",0.14856,"Incongruent - Mild","Hard"
"qbb6xqvqpv","Ebbinghaus",-0.2687,-0.3,"Ebbinghaus_-0.3000_-0.2687.png","B",75,1522652,0.707,"arrowright","arrowright",0,"Congruent",0.2687,"Congruent - Mild","Easy"
"qbb6xqvqpv","Ebbinghaus",0.2687,-0.9,"Ebbinghaus_-0.9000_0.26870.png","B",76,1524185,0.558,"arrowleft","arrowleft",0,"Congruent",0.2687,"Congruent - Strong","Easy"
"qbb6xqvqpv","Ebbinghaus",0.41515,0.6,"Ebbinghaus_0.60000_0.41515.png","B",77,1525530,0.991,"arrowleft","arrowleft",0,"Incongruent",0.41515,"Incongruent - Mild","Easy"
"qbb6xqvqpv","Ebbinghaus",0.05,1.5,"Ebbinghaus_1.50000_0.05000.png","B",78,1527267,0.682,"arrowright","arrowleft",1,"Incongruent",0.05,"Incongruent - Strong","Hard"
"qbb6xqvqpv","Ebbinghaus",0.14856,1.2,"Ebbinghaus_1.20000_0.14856.png","B",79,1528596,0.967,"arrowright","arrowleft",1,"Incongruent",0.14856,"Incongruent - Strong","Hard"
"qbb6xqvqpv","VerticalHorizontal",0.16122,-18,"VerticalHorizontal_-18.000_0.16122.png","B",1,1541171,0.748,"arrowleft","arrowleft",0,"Congruent",0.16122,"Congruent - Mild","Easy"
"qbb6xqvqpv","VerticalHorizontal",-0.24909,-18,"VerticalHorizontal_-18.000_-0.24909.png","B",2,1542747,0.639,"arrowright","arrowright",0,"Congruent",0.24909,"Congruent - Mild","Easy"
"qbb6xqvqpv","VerticalHorizontal",0.08913,-36,"VerticalHorizontal_-36.000_0.08913.png","B",3,1544029,0.614,"arrowleft","arrowleft",0,"Congruent",0.08913,"Congruent - Strong","Hard"
"qbb6xqvqpv","VerticalHorizontal",0.24909,-18,"VerticalHorizontal_-18.000_0.24909.png","B",4,1545748,0.572,"arrowleft","arrowleft",0,"Congruent",0.24909,"Congruent - Mild","Easy"
"qbb6xqvqpv","VerticalHorizontal",-0.16122,45,"VerticalHorizontal_45.0000_-0.16122.png","B",5,1547114,1.197,"arrowright","arrowright",0,"Incongruent",0.16122,"Incongruent - Strong","Easy"
"qbb6xqvqpv","VerticalHorizontal",0.24909,-45,"VerticalHorizontal_-45.000_0.24909.png","B",6,1549055,0.544,"arrowleft","arrowleft",0,"Congruent",0.24909,"Congruent - Strong","Easy"
"qbb6xqvqpv","VerticalHorizontal",0.24909,9,"VerticalHorizontal_9.00000_0.24909.png","B",7,1550489,0.552,"arrowleft","arrowleft",0,"Incongruent",0.24909,"Incongruent - Mild","Easy"
"qbb6xqvqpv","VerticalHorizontal",-0.16122,9,"VerticalHorizontal_9.00000_-0.16122.png","B",8,1552134,0.825,"arrowright","arrowright",0,"Incongruent",0.16122,"Incongruent - Mild","Easy"
"qbb6xqvqpv","VerticalHorizontal",0.16122,-27,"VerticalHorizontal_-27.000_0.16122.png","B",9,1553754,0.799,"arrowleft","arrowleft",0,"Congruent",0.16122,"Congruent - Strong","Easy"
"qbb6xqvqpv","VerticalHorizontal",-0.03,9,"VerticalHorizontal_9.00000_-0.0300.png","B",10,1555547,1.165,"arrowright","arrowright",0,"Incongruent",0.03,"Incongruent - Mild","Hard"
"qbb6xqvqpv","VerticalHorizontal",0.16122,-45,"VerticalHorizontal_-45.000_0.16122.png","B",11,1557785,1.416,"arrowright","arrowleft",1,"Congruent",0.16122,"Congruent - Strong","Easy"
"qbb6xqvqpv","VerticalHorizontal",-0.08913,-45,"VerticalHorizontal_-45.000_-0.08913.png","B",12,1559819,0.855,"arrowright","arrowright",0,"Congruent",0.08913,"Congruent - Strong","Hard"
"qbb6xqvqpv","VerticalHorizontal",-0.08913,36,"VerticalHorizontal_36.0000_-0.08913.png","B",13,1561449,2.215,"arrowright","arrowright",0,"Incongruent",0.08913,"Incongruent - Strong","Hard"
"qbb6xqvqpv","VerticalHorizontal",0.16122,27,"VerticalHorizontal_27.0000_0.16122.png","B",15,1568094,2.26,"arrowleft","arrowleft",0,"Incongruent",0.16122,"Incongruent - Strong","Easy"
"qbb6xqvqpv","VerticalHorizontal",-0.24909,-45,"VerticalHorizontal_-45.000_-0.24909.png","B",17,1574899,0.487,"arrowright","arrowright",0,"Congruent",0.24909,"Congruent - Strong","Easy"
"qbb6xqvqpv","VerticalHorizontal",-0.08913,9,"VerticalHorizontal_9.00000_-0.08913.png","B",18,1576026,0.674,"arrowright","arrowright",0,"Incongruent",0.08913,"Incongruent - Mild","Hard"
"qbb6xqvqpv","VerticalHorizontal",-0.16122,18,"VerticalHorizontal_18.0000_-0.16122.png","B",19,1577662,0.733,"arrowright","arrowright",0,"Incongruent",0.16122,"Incongruent - Mild","Easy"
"qbb6xqvqpv","VerticalHorizontal",0.03,27,"VerticalHorizontal_27.0000_0.03000.png","B",20,1579438,1.446,"arrowright","arrowleft",1,"Incongruent",0.03,"Incongruent - Strong","Hard"
"qbb6xqvqpv","VerticalHorizontal",0.03,-9,"VerticalHorizontal_-9.0000_0.03000.png","B",21,1581690,1.564,"arrowleft","arrowleft",0,"Congruent",0.03,"Congruent - Mild","Hard"
"qbb6xqvqpv","VerticalHorizontal",-0.24909,18,"VerticalHorizontal_18.0000_-0.24909.png","B",22,1583864,0.605,"arrowright","arrowright",0,"Incongruent",0.24909,"Incongruent - Mild","Easy"
"qbb6xqvqpv","VerticalHorizontal",0.03,45,"VerticalHorizontal_45.0000_0.03000.png","B",23,1585381,1.357,"arrowright","arrowleft",1,"Incongruent",0.03,"Incongruent - Strong","Hard"
"qbb6xqvqpv","VerticalHorizontal",-0.24909,9,"VerticalHorizontal_9.00000_-0.24909.png","B",24,1587540,0.703,"arrowright","arrowright",0,"Incongruent",0.24909,"Incongruent - Mild","Easy"
"qbb6xqvqpv","VerticalHorizontal",0.03,-36,"VerticalHorizontal_-36.000_0.03000.png","B",25,1589109,1.257,"arrowleft","arrowleft",0,"Congruent",0.03,"Congruent - Strong","Hard"
"qbb6xqvqpv","VerticalHorizontal",-0.16122,-18,"VerticalHorizontal_-18.000_-0.16122.png","B",26,1591079,0.57,"arrowright","arrowright",0,"Congruent",0.16122,"Congruent - Mild","Easy"
"qbb6xqvqpv","VerticalHorizontal",-0.24909,27,"VerticalHorizontal_27.0000_-0.24909.png","B",27,1592290,1.092,"arrowright","arrowright",0,"Incongruent",0.24909,"Incongruent - Strong","Easy"
"qbb6xqvqpv","VerticalHorizontal",-0.03,45,"VerticalHorizontal_45.0000_-0.0300.png","B",29,1598227,1.067,"arrowleft","arrowright",1,"Incongruent",0.03,"Incongruent - Strong","Hard"
"qbb6xqvqpv","VerticalHorizontal",-0.08913,-18,"VerticalHorizontal_-18.000_-0.08913.png","B",30,1599908,0.594,"arrowright","arrowright",0,"Congruent",0.08913,"Congruent - Mild","Hard"
"qbb6xqvqpv","VerticalHorizontal",0.03,36,"VerticalHorizontal_36.0000_0.03000.png","B",31,1601342,2.254,"arrowright","arrowleft",1,"Incongruent",0.03,"Incongruent - Strong","Hard"
"qbb6xqvqpv","VerticalHorizontal",0.24909,27,"VerticalHorizontal_27.0000_0.24909.png","B",32,1604543,0.597,"arrowleft","arrowleft",0,"Incongruent",0.24909,"Incongruent - Strong","Easy"
"qbb6xqvqpv","VerticalHorizontal",-0.03,-9,"VerticalHorizontal_-9.0000_-0.0300.png","B",33,1606010,1.668,"arrowright","arrowright",0,"Congruent",0.03,"Congruent - Mild","Hard"
"qbb6xqvqpv","VerticalHorizontal",0.03,-18,"VerticalHorizontal_-18.000_0.03000.png","B",34,1608432,1.281,"arrowleft","arrowleft",0,"Congruent",0.03,"Congruent - Mild","Hard"
"qbb6xqvqpv","VerticalHorizontal",0.24909,45,"VerticalHorizontal_45.0000_0.24909.png","B",35,1610761,1.104,"arrowleft","arrowleft",0,"Incongruent",0.24909,"Incongruent - Strong","Easy"
"qbb6xqvqpv","VerticalHorizontal",0.16122,9,"VerticalHorizontal_9.00000_0.16122.png","B",36,1612866,0.547,"arrowleft","arrowleft",0,"Incongruent",0.16122,"Incongruent - Mild","Easy"
"qbb6xqvqpv","VerticalHorizontal",0.08913,36,"VerticalHorizontal_36.0000_0.08913.png","B",37,1614364,1.393,"arrowright","arrowleft",1,"Incongruent",0.08913,"Incongruent - Strong","Hard"
"qbb6xqvqpv","VerticalHorizontal",0.08913,-45,"VerticalHorizontal_-45.000_0.08913.png","B",38,1616837,0.599,"arrowleft","arrowleft",0,"Congruent",0.08913,"Congruent - Strong","Hard"
"qbb6xqvqpv","VerticalHorizontal",0.08913,45,"VerticalHorizontal_45.0000_0.08913.png","B",39,1618195,0.559,"arrowright","arrowleft",1,"Incongruent",0.08913,"Incongruent - Strong","Hard"
"qbb6xqvqpv","VerticalHorizontal",-0.24909,-36,"VerticalHorizontal_-36.000_-0.24909.png","B",40,1619637,0.437,"arrowright","arrowright",0,"Congruent",0.24909,"Congruent - Strong","Easy"
"qbb6xqvqpv","VerticalHorizontal",0.16122,36,"VerticalHorizontal_36.0000_0.16122.png","B",41,1620782,0.827,"arrowleft","arrowleft",0,"Incongruent",0.16122,"Incongruent - Strong","Easy"
"qbb6xqvqpv","VerticalHorizontal",0.08913,-27,"VerticalHorizontal_-27.000_0.08913.png","B",43,1628737,0.542,"arrowleft","arrowleft",0,"Congruent",0.08913,"Congruent - Strong","Hard"
"qbb6xqvqpv","VerticalHorizontal",0.03,-27,"VerticalHorizontal_-27.000_0.03000.png","B",44,1630362,0.806,"arrowleft","arrowleft",0,"Congruent",0.03,"Congruent - Strong","Hard"
"qbb6xqvqpv","VerticalHorizontal",0.24909,18,"VerticalHorizontal_18.0000_0.24909.png","B",45,1632125,0.508,"arrowleft","arrowleft",0,"Incongruent",0.24909,"Incongruent - Mild","Easy"
"qbb6xqvqpv","VerticalHorizontal",-0.24909,36,"VerticalHorizontal_36.0000_-0.24909.png","B",46,1633481,0.472,"arrowright","arrowright",0,"Incongruent",0.24909,"Incongruent - Strong","Easy"
"qbb6xqvqpv","VerticalHorizontal",-0.03,18,"VerticalHorizontal_18.0000_-0.0300.png","B",47,1634861,1.302,"arrowleft","arrowright",1,"Incongruent",0.03,"Incongruent - Mild","Hard"
"qbb6xqvqpv","VerticalHorizontal",-0.16122,-27,"VerticalHorizontal_-27.000_-0.16122.png","B",48,1637027,0.472,"arrowright","arrowright",0,"Congruent",0.16122,"Congruent - Strong","Easy"
"qbb6xqvqpv","VerticalHorizontal",-0.16122,-36,"VerticalHorizontal_-36.000_-0.16122.png","B",49,1638262,0.509,"arrowright","arrowright",0,"Congruent",0.16122,"Congruent - Strong","Easy"
"qbb6xqvqpv","VerticalHorizontal",-0.08913,-36,"VerticalHorizontal_-36.000_-0.08913.png","B",50,1639601,0.653,"arrowright","arrowright",0,"Congruent",0.08913,"Congruent - Strong","Hard"
"qbb6xqvqpv","VerticalHorizontal",0.03,18,"VerticalHorizontal_18.0000_0.03000.png","B",51,1640975,1.984,"arrowleft","arrowleft",0,"Incongruent",0.03,"Incongruent - Mild","Hard"
"qbb6xqvqpv","VerticalHorizontal",0.24909,-27,"VerticalHorizontal_-27.000_0.24909.png","B",52,1644001,0.602,"arrowleft","arrowleft",0,"Congruent",0.24909,"Congruent - Strong","Easy"
"qbb6xqvqpv","VerticalHorizontal",-0.16122,-45,"VerticalHorizontal_-45.000_-0.16122.png","B",53,1645561,0.424,"arrowright","arrowright",0,"Congruent",0.16122,"Congruent - Strong","Easy"
"qbb6xqvqpv","VerticalHorizontal",-0.08913,18,"VerticalHorizontal_18.0000_-0.08913.png","B",54,1646878,2.093,"arrowright","arrowright",0,"Incongruent",0.08913,"Incongruent - Mild","Hard"
"qbb6xqvqpv","VerticalHorizontal",-0.16122,-9,"VerticalHorizontal_-9.0000_-0.16122.png","B",55,1649986,0.545,"arrowright","arrowright",0,"Congruent",0.16122,"Congruent - Mild","Easy"
"qbb6xqvqpv","VerticalHorizontal",0.24909,36,"VerticalHorizontal_36.0000_0.24909.png","B",56,1651528,0.514,"arrowleft","arrowleft",0,"Incongruent",0.24909,"Incongruent - Strong","Easy"
"qbb6xqvqpv","VerticalHorizontal",-0.03,-45,"VerticalHorizontal_-45.000_-0.0300.png","B",57,1652666,0.515,"arrowright","arrowright",0,"Congruent",0.03,"Congruent - Strong","Hard"
"qbb6xqvqpv","VerticalHorizontal",-0.08913,-27,"VerticalHorizontal_-27.000_-0.08913.png","B",58,1654135,0.417,"arrowright","arrowright",0,"Congruent",0.08913,"Congruent - Strong","Hard"
"qbb6xqvqpv","VerticalHorizontal",-0.08913,45,"VerticalHorizontal_45.0000_-0.08913.png","B",59,1655192,0.53,"arrowleft","arrowright",1,"Incongruent",0.08913,"Incongruent - Strong","Hard"
"qbb6xqvqpv","VerticalHorizontal",0.08913,-18,"VerticalHorizontal_-18.000_0.08913.png","B",60,1656595,0.81,"arrowleft","arrowleft",0,"Congruent",0.08913,"Congruent - Mild","Hard"
"qbb6xqvqpv","VerticalHorizontal",-0.16122,27,"VerticalHorizontal_27.0000_-0.16122.png","B",61,1658389,1.292,"arrowright","arrowright",0,"Incongruent",0.16122,"Incongruent - Strong","Easy"
"qbb6xqvqpv","VerticalHorizontal",0.16122,45,"VerticalHorizontal_45.0000_0.16122.png","B",62,1660656,0.787,"arrowleft","arrowleft",0,"Incongruent",0.16122,"Incongruent - Strong","Easy"
"qbb6xqvqpv","VerticalHorizontal",-0.24909,-9,"VerticalHorizontal_-9.0000_-0.24909.png","B",63,1662093,0.451,"arrowright","arrowright",0,"Congruent",0.24909,"Congruent - Mild","Easy"
"qbb6xqvqpv","VerticalHorizontal",0.08913,27,"VerticalHorizontal_27.0000_0.08913.png","B",64,1663268,1.385,"arrowleft","arrowleft",0,"Incongruent",0.08913,"Incongruent - Strong","Hard"
"qbb6xqvqpv","VerticalHorizontal",0.08913,9,"VerticalHorizontal_9.00000_0.08913.png","B",65,1665561,1.291,"arrowleft","arrowleft",0,"Incongruent",0.08913,"Incongruent - Mild","Hard"
"qbb6xqvqpv","VerticalHorizontal",-0.03,-27,"VerticalHorizontal_-27.000_-0.0300.png","B",66,1667743,0.496,"arrowright","arrowright",0,"Congruent",0.03,"Congruent - Strong","Hard"
"qbb6xqvqpv","VerticalHorizontal",0.03,-45,"VerticalHorizontal_-45.000_0.03000.png","B",67,1669227,0.511,"arrowleft","arrowleft",0,"Congruent",0.03,"Congruent - Strong","Hard"
"qbb6xqvqpv","VerticalHorizontal",0.08913,-9,"VerticalHorizontal_-9.0000_0.08913.png","B",68,1670447,0.501,"arrowleft","arrowleft",0,"Congruent",0.08913,"Congruent - Mild","Hard"
"qbb6xqvqpv","VerticalHorizontal",-0.03,-36,"VerticalHorizontal_-36.000_-0.0300.png","B",69,1671897,0.535,"arrowright","arrowright",0,"Congruent",0.03,"Congruent - Strong","Hard"
"qbb6xqvqpv","VerticalHorizontal",-0.16122,36,"VerticalHorizontal_36.0000_-0.16122.png","B",70,1673133,1.41,"arrowright","arrowright",0,"Incongruent",0.16122,"Incongruent - Strong","Easy"
"qbb6xqvqpv","VerticalHorizontal",-0.24909,45,"VerticalHorizontal_45.0000_-0.24909.png","B",71,1675304,0.859,"arrowright","arrowright",0,"Incongruent",0.24909,"Incongruent - Strong","Easy"
"qbb6xqvqpv","VerticalHorizontal",-0.08913,-9,"VerticalHorizontal_-9.0000_-0.08913.png","B",72,1677033,1.194,"arrowright","arrowright",0,"Congruent",0.08913,"Congruent - Mild","Hard"
"qbb6xqvqpv","VerticalHorizontal",0.24909,-9,"VerticalHorizontal_-9.0000_0.24909.png","B",73,1679216,0.531,"arrowleft","arrowleft",0,"Congruent",0.24909,"Congruent - Mild","Easy"
"qbb6xqvqpv","VerticalHorizontal",0.16122,-36,"VerticalHorizontal_-36.000_0.16122.png","B",74,1680516,0.454,"arrowleft","arrowleft",0,"Congruent",0.16122,"Congruent - Strong","Easy"
"qbb6xqvqpv","VerticalHorizontal",-0.24909,-27,"VerticalHorizontal_-27.000_-0.24909.png","B",75,1682032,0.461,"arrowright","arrowright",0,"Congruent",0.24909,"Congruent - Strong","Easy"
"qbb6xqvqpv","VerticalHorizontal",-0.03,-18,"VerticalHorizontal_-18.000_-0.0300.png","B",76,1683102,1.377,"arrowleft","arrowright",1,"Congruent",0.03,"Congruent - Mild","Hard"
"qbb6xqvqpv","VerticalHorizontal",0.24909,-36,"VerticalHorizontal_-36.000_0.24909.png","B",77,1685389,0.443,"arrowleft","arrowleft",0,"Congruent",0.24909,"Congruent - Strong","Easy"
"qbb6xqvqpv","VerticalHorizontal",0.16122,18,"VerticalHorizontal_18.0000_0.16122.png","B",78,1686899,0.992,"arrowleft","arrowleft",0,"Incongruent",0.16122,"Incongruent - Mild","Easy"
"qbb6xqvqpv","VerticalHorizontal",0.16122,-9,"VerticalHorizontal_-9.0000_0.16122.png","B",79,1688808,0.586,"arrowleft","arrowleft",0,"Congruent",0.16122,"Congruent - Mild","Easy"
"qbb6xqvqpv","VerticalHorizontal",-0.03,27,"VerticalHorizontal_27.0000_-0.0300.png","B",80,1690185,1.305,"arrowleft","arrowright",1,"Incongruent",0.03,"Incongruent - Strong","Hard"
"23pubcvhh0","MullerLyer",0.08716,15,"MullerLyer_15.0000_0.08716.png","A",1,221162,0.632,"arrowdown","arrowup",1,"Incongruent",0.08716,"Incongruent - Mild","Hard"
"23pubcvhh0","MullerLyer",-0.08716,-3,"MullerLyer_-3.0000_-0.08716.png","A",2,222415,0.637,"arrowdown","arrowdown",0,"Congruent",0.08716,"Congruent - Mild","Hard"
"23pubcvhh0","MullerLyer",-0.18509,-21,"MullerLyer_-21.000_-0.18509.png","A",3,223685,0.483,"arrowdown","arrowdown",0,"Congruent",0.18509,"Congruent - Strong","Hard"
"23pubcvhh0","MullerLyer",-0.45,-15,"MullerLyer_-15.000_-0.4500.png","A",4,225066,0.513,"arrowdown","arrowdown",0,"Congruent",0.45,"Congruent - Mild","Easy"
"23pubcvhh0","MullerLyer",0.45,27,"MullerLyer_27.0000_0.45000.png","A",5,226680,0.674,"arrowup","arrowup",0,"Incongruent",0.45,"Incongruent - Strong","Easy"
"23pubcvhh0","MullerLyer",0.45,-21,"MullerLyer_-21.000_0.45000.png","A",6,228214,0.505,"arrowup","arrowup",0,"Congruent",0.45,"Congruent - Strong","Easy"
"23pubcvhh0","MullerLyer",0.30447,15,"MullerLyer_15.0000_0.30447.png","A",7,229531,0.603,"arrowdown","arrowup",1,"Incongruent",0.30447,"Incongruent - Mild","Easy"
"23pubcvhh0","MullerLyer",-0.45,-21,"MullerLyer_-21.000_-0.4500.png","A",8,230834,0.489,"arrowdown","arrowdown",0,"Congruent",0.45,"Congruent - Strong","Easy"
"23pubcvhh0","MullerLyer",0.08716,-9,"MullerLyer_-9.0000_0.08716.png","A",9,231985,0.523,"arrowup","arrowup",0,"Congruent",0.08716,"Congruent - Mild","Hard"
"23pubcvhh0","MullerLyer",0.18509,-9,"MullerLyer_-9.0000_0.18509.png","A",10,233167,0.706,"arrowup","arrowup",0,"Congruent",0.18509,"Congruent - Mild","Hard"
"23pubcvhh0","MullerLyer",-0.18509,3,"MullerLyer_3.00000_-0.18509.png","A",11,234501,0.606,"arrowdown","arrowdown",0,"Incongruent",0.18509,"Incongruent - Mild","Hard"
"23pubcvhh0","MullerLyer",0.45,9,"MullerLyer_9.00000_0.45000.png","A",12,236165,0.433,"arrowup","arrowup",0,"Incongruent",0.45,"Incongruent - Mild","Easy"
"23pubcvhh0","MullerLyer",0.30447,21,"MullerLyer_21.0000_0.30447.png","A",13,237622,0.63,"arrowdown","arrowup",1,"Incongruent",0.30447,"Incongruent - Strong","Easy"
"23pubcvhh0","MullerLyer",-0.30447,-15,"MullerLyer_-15.000_-0.30447.png","A",14,238973,0.488,"arrowdown","arrowdown",0,"Congruent",0.30447,"Congruent - Mild","Easy"
"23pubcvhh0","MullerLyer",-0.30447,-27,"MullerLyer_-27.000_-0.30447.png","A",16,242337,0.528,"arrowdown","arrowdown",0,"Congruent",0.30447,"Congruent - Strong","Easy"
"23pubcvhh0","MullerLyer",-0.08716,27,"MullerLyer_27.0000_-0.08716.png","A",17,243558,0.442,"arrowup","arrowdown",1,"Incongruent",0.08716,"Incongruent - Strong","Hard"
"23pubcvhh0","MullerLyer",-0.18509,21,"MullerLyer_21.0000_-0.18509.png","A",18,244670,0.687,"arrowup","arrowdown",1,"Incongruent",0.18509,"Incongruent - Strong","Hard"
"23pubcvhh0","MullerLyer",0.30447,9,"MullerLyer_9.00000_0.30447.png","A",19,246394,0.72,"arrowup","arrowup",0,"Incongruent",0.30447,"Incongruent - Mild","Easy"
"23pubcvhh0","MullerLyer",-0.45,-9,"MullerLyer_-9.0000_-0.4500.png","A",20,248201,0.389,"arrowdown","arrowdown",0,"Congruent",0.45,"Congruent - Mild","Easy"
"23pubcvhh0","MullerLyer",0.30447,27,"MullerLyer_27.0000_0.30447.png","A",21,249222,0.445,"arrowup","arrowup",0,"Incongruent",0.30447,"Incongruent - Strong","Easy"
"23pubcvhh0","MullerLyer",-0.30447,21,"MullerLyer_21.0000_-0.30447.png","A",22,250572,0.702,"arrowdown","arrowdown",0,"Incongruent",0.30447,"Incongruent - Strong","Easy"
"23pubcvhh0","MullerLyer",0.18509,-3,"MullerLyer_-3.0000_0.18509.png","A",23,252325,0.567,"arrowup","arrowup",0,"Congruent",0.18509,"Congruent - Mild","Hard"
"23pubcvhh0","MullerLyer",-0.45,-27,"MullerLyer_-27.000_-0.4500.png","A",24,253811,0.38,"arrowdown","arrowdown",0,"Congruent",0.45,"Congruent - Strong","Easy"
"23pubcvhh0","MullerLyer",0.45,-3,"MullerLyer_-3.0000_0.45000.png","A",25,255115,0.426,"arrowup","arrowup",0,"Congruent",0.45,"Congruent - Mild","Easy"
"23pubcvhh0","MullerLyer",-0.30447,-9,"MullerLyer_-9.0000_-0.30447.png","A",26,256543,0.383,"arrowdown","arrowdown",0,"Congruent",0.30447,"Congruent - Mild","Easy"
"23pubcvhh0","MullerLyer",0.08716,-15,"MullerLyer_-15.000_0.08716.png","A",27,257707,0.422,"arrowup","arrowup",0,"Congruent",0.08716,"Congruent - Mild","Hard"
"23pubcvhh0","MullerLyer",-0.30447,27,"MullerLyer_27.0000_-0.30447.png","A",28,258765,0.627,"arrowup","arrowdown",1,"Incongruent",0.30447,"Incongruent - Strong","Easy"
"23pubcvhh0","MullerLyer",0.08716,27,"MullerLyer_27.0000_0.08716.png","A",29,260489,0.504,"arrowdown","arrowup",1,"Incongruent",0.08716,"Incongruent - Strong","Hard"
"23pubcvhh0","MullerLyer",-0.30447,3,"MullerLyer_3.00000_-0.30447.png","A",30,261993,0.529,"arrowdown","arrowdown",0,"Incongruent",0.30447,"Incongruent - Mild","Easy"
"23pubcvhh0","MullerLyer",0.45,21,"MullerLyer_21.0000_0.45000.png","A",31,263308,0.422,"arrowup","arrowup",0,"Incongruent",0.45,"Incongruent - Strong","Easy"
"23pubcvhh0","MullerLyer",0.08716,21,"MullerLyer_21.0000_0.08716.png","A",32,264365,0.588,"arrowdown","arrowup",1,"Incongruent",0.08716,"Incongruent - Strong","Hard"
"23pubcvhh0","MullerLyer",0.30447,-3,"MullerLyer_-3.0000_0.30447.png","A",33,265653,0.418,"arrowup","arrowup",0,"Congruent",0.30447,"Congruent - Mild","Easy"
"23pubcvhh0","MullerLyer",-0.45,21,"MullerLyer_21.0000_-0.4500.png","A",34,266821,0.408,"arrowdown","arrowdown",0,"Incongruent",0.45,"Incongruent - Strong","Easy"
"23pubcvhh0","MullerLyer",-0.08716,9,"MullerLyer_9.00000_-0.08716.png","A",35,268245,0.388,"arrowup","arrowdown",1,"Incongruent",0.08716,"Incongruent - Mild","Hard"
"23pubcvhh0","MullerLyer",0.45,15,"MullerLyer_15.0000_0.45000.png","A",36,269459,0.52,"arrowup","arrowup",0,"Incongruent",0.45,"Incongruent - Mild","Easy"
"23pubcvhh0","MullerLyer",0.08716,-3,"MullerLyer_-3.0000_0.08716.png","A",37,270969,0.522,"arrowup","arrowup",0,"Congruent",0.08716,"Congruent - Mild","Hard"
"23pubcvhh0","MullerLyer",0.30447,3,"MullerLyer_3.00000_0.30447.png","A",38,272306,0.448,"arrowup","arrowup",0,"Incongruent",0.30447,"Incongruent - Mild","Easy"
"23pubcvhh0","MullerLyer",-0.18509,27,"MullerLyer_27.0000_-0.18509.png","A",39,273393,0.96,"arrowdown","arrowdown",0,"Incongruent",0.18509,"Incongruent - Strong","Hard"
"23pubcvhh0","MullerLyer",-0.08716,3,"MullerLyer_3.00000_-0.08716.png","A",40,275181,0.644,"arrowdown","arrowdown",0,"Incongruent",0.08716,"Incongruent - Mild","Hard"
"23pubcvhh0","MullerLyer",-0.18509,15,"MullerLyer_15.0000_-0.18509.png","A",41,276807,0.51,"arrowdown","arrowdown",0,"Incongruent",0.18509,"Incongruent - Mild","Hard"
"23pubcvhh0","MullerLyer",0.30447,-21,"MullerLyer_-21.000_0.30447.png","A",42,278303,0.437,"arrowup","arrowup",0,"Congruent",0.30447,"Congruent - Strong","Easy"
"23pubcvhh0","MullerLyer",-0.30447,-3,"MullerLyer_-3.0000_-0.30447.png","A",43,279823,0.562,"arrowdown","arrowdown",0,"Congruent",0.30447,"Congruent - Mild","Easy"
"23pubcvhh0","MullerLyer",-0.45,3,"MullerLyer_3.00000_-0.4500.png","A",44,281377,0.502,"arrowdown","arrowdown",0,"Incongruent",0.45,"Incongruent - Mild","Easy"
"23pubcvhh0","MullerLyer",-0.18509,-9,"MullerLyer_-9.0000_-0.18509.png","A",45,282634,0.588,"arrowdown","arrowdown",0,"Congruent",0.18509,"Congruent - Mild","Hard"
"23pubcvhh0","MullerLyer",0.45,-15,"MullerLyer_-15.000_0.45000.png","A",46,284156,0.462,"arrowup","arrowup",0,"Congruent",0.45,"Congruent - Mild","Easy"
"23pubcvhh0","MullerLyer",-0.18509,-27,"MullerLyer_-27.000_-0.18509.png","A",47,285586,0.389,"arrowdown","arrowdown",0,"Congruent",0.18509,"Congruent - Strong","Hard"
"23pubcvhh0","MullerLyer",0.45,-9,"MullerLyer_-9.0000_0.45000.png","A",48,286672,0.39,"arrowup","arrowup",0,"Congruent",0.45,"Congruent - Mild","Easy"
"23pubcvhh0","MullerLyer",-0.08716,-15,"MullerLyer_-15.000_-0.08716.png","A",49,287697,0.661,"arrowdown","arrowdown",0,"Congruent",0.08716,"Congruent - Mild","Hard"
"23pubcvhh0","MullerLyer",0.18509,9,"MullerLyer_9.00000_0.18509.png","A",50,289385,0.696,"arrowup","arrowup",0,"Incongruent",0.18509,"Incongruent - Mild","Hard"
"23pubcvhh0","MullerLyer",0.18509,21,"MullerLyer_21.0000_0.18509.png","A",51,290968,0.487,"arrowdown","arrowup",1,"Incongruent",0.18509,"Incongruent - Strong","Hard"
"23pubcvhh0","MullerLyer",0.18509,-15,"MullerLyer_-15.000_0.18509.png","A",52,292255,0.524,"arrowup","arrowup",0,"Congruent",0.18509,"Congruent - Mild","Hard"
"23pubcvhh0","MullerLyer",0.18509,15,"MullerLyer_15.0000_0.18509.png","A",53,293519,0.522,"arrowdown","arrowup",1,"Incongruent",0.18509,"Incongruent - Mild","Hard"
"23pubcvhh0","MullerLyer",0.30447,-27,"MullerLyer_-27.000_0.30447.png","A",54,295133,0.423,"arrowup","arrowup",0,"Congruent",0.30447,"Congruent - Strong","Easy"
"23pubcvhh0","MullerLyer",0.08716,3,"MullerLyer_3.00000_0.08716.png","A",55,296220,0.722,"arrowdown","arrowup",1,"Incongruent",0.08716,"Incongruent - Mild","Hard"
"23pubcvhh0","MullerLyer",-0.08716,-9,"MullerLyer_-9.0000_-0.08716.png","A",56,298033,0.568,"arrowdown","arrowdown",0,"Congruent",0.08716,"Congruent - Mild","Hard"
"23pubcvhh0","MullerLyer",-0.18509,-15,"MullerLyer_-15.000_-0.18509.png","A",57,299556,0.616,"arrowdown","arrowdown",0,"Congruent",0.18509,"Congruent - Mild","Hard"
"23pubcvhh0","MullerLyer",0.08716,-27,"MullerLyer_-27.000_0.08716.png","A",58,301107,0.471,"arrowup","arrowup",0,"Congruent",0.08716,"Congruent - Strong","Hard"
"23pubcvhh0","MullerLyer",0.30447,-9,"MullerLyer_-9.0000_0.30447.png","A",59,302688,0.493,"arrowup","arrowup",0,"Congruent",0.30447,"Congruent - Mild","Easy"
"23pubcvhh0","MullerLyer",-0.45,15,"MullerLyer_15.0000_-0.4500.png","A",60,303870,0.494,"arrowdown","arrowdown",0,"Incongruent",0.45,"Incongruent - Mild","Easy"
"23pubcvhh0","MullerLyer",-0.45,-3,"MullerLyer_-3.0000_-0.4500.png","A",61,305020,0.482,"arrowdown","arrowdown",0,"Congruent",0.45,"Congruent - Mild","Easy"
"23pubcvhh0","MullerLyer",-0.08716,-21,"MullerLyer_-21.000_-0.08716.png","A",62,306201,0.467,"arrowdown","arrowdown",0,"Congruent",0.08716,"Congruent - Strong","Hard"
"23pubcvhh0","MullerLyer",0.08716,-21,"MullerLyer_-21.000_0.08716.png","A",63,307409,0.429,"arrowup","arrowup",0,"Congruent",0.08716,"Congruent - Strong","Hard"
"23pubcvhh0","MullerLyer",-0.08716,15,"MullerLyer_15.0000_-0.08716.png","A",64,308807,0.733,"arrowup","arrowdown",1,"Incongruent",0.08716,"Incongruent - Mild","Hard"
"23pubcvhh0","MullerLyer",0.45,-27,"MullerLyer_-27.000_0.45000.png","A",65,310363,0.458,"arrowup","arrowup",0,"Congruent",0.45,"Congruent - Strong","Easy"
"23pubcvhh0","MullerLyer",-0.18509,9,"MullerLyer_9.00000_-0.18509.png","A",66,311654,0.453,"arrowdown","arrowdown",0,"Incongruent",0.18509,"Incongruent - Mild","Hard"
"23pubcvhh0","MullerLyer",0.45,3,"MullerLyer_3.00000_0.45000.png","A",67,312978,0.443,"arrowup","arrowup",0,"Incongruent",0.45,"Incongruent - Mild","Easy"
"23pubcvhh0","MullerLyer",-0.45,27,"MullerLyer_27.0000_-0.4500.png","A",68,314326,0.491,"arrowdown","arrowdown",0,"Incongruent",0.45,"Incongruent - Strong","Easy"
"23pubcvhh0","MullerLyer",-0.08716,21,"MullerLyer_21.0000_-0.08716.png","A",69,315458,0.482,"arrowup","arrowdown",1,"Incongruent",0.08716,"Incongruent - Strong","Hard"
"23pubcvhh0","MullerLyer",0.18509,-21,"MullerLyer_-21.000_0.18509.png","A",70,316669,0.544,"arrowup","arrowup",0,"Congruent",0.18509,"Congruent - Strong","Hard"
"23pubcvhh0","MullerLyer",-0.08716,-27,"MullerLyer_-27.000_-0.08716.png","A",71,318003,0.419,"arrowdown","arrowdown",0,"Congruent",0.08716,"Congruent - Strong","Hard"
"23pubcvhh0","MullerLyer",0.18509,-27,"MullerLyer_-27.000_0.18509.png","A",72,319370,0.436,"arrowup","arrowup",0,"Congruent",0.18509,"Congruent - Strong","Hard"
"23pubcvhh0","MullerLyer",-0.45,9,"MullerLyer_9.00000_-0.4500.png","A",73,320704,0.506,"arrowdown","arrowdown",0,"Incongruent",0.45,"Incongruent - Mild","Easy"
"23pubcvhh0","MullerLyer",0.08716,9,"MullerLyer_9.00000_0.08716.png","A",74,322023,0.941,"arrowdown","arrowup",1,"Incongruent",0.08716,"Incongruent - Mild","Hard"
"23pubcvhh0","MullerLyer",-0.30447,-21,"MullerLyer_-21.000_-0.30447.png","A",75,324038,0.437,"arrowdown","arrowdown",0,"Congruent",0.30447,"Congruent - Strong","Easy"
"23pubcvhh0","MullerLyer",-0.18509,-3,"MullerLyer_-3.0000_-0.18509.png","A",76,325420,0.47,"arrowdown","arrowdown",0,"Congruent",0.18509,"Congruent - Mild","Hard"
"23pubcvhh0","MullerLyer",-0.30447,9,"MullerLyer_9.00000_-0.30447.png","A",77,326658,0.473,"arrowdown","arrowdown",0,"Incongruent",0.30447,"Incongruent - Mild","Easy"
"23pubcvhh0","MullerLyer",0.18509,27,"MullerLyer_27.0000_0.18509.png","A",78,327950,0.446,"arrowdown","arrowup",1,"Incongruent",0.18509,"Incongruent - Strong","Hard"
"23pubcvhh0","MullerLyer",0.18509,3,"MullerLyer_3.00000_0.18509.png","A",79,329439,0.61,"arrowup","arrowup",0,"Incongruent",0.18509,"Incongruent - Mild","Hard"
"23pubcvhh0","MullerLyer",0.30447,-15,"MullerLyer_-15.000_0.30447.png","A",80,330867,0.597,"arrowup","arrowup",0,"Congruent",0.30447,"Congruent - Mild","Easy"
"23pubcvhh0","Ebbinghaus",0.20566,-0.15,"Ebbinghaus_-0.1500_0.20566.png","A",1,341118,0.826,"arrowleft","arrowleft",0,"Congruent",0.20566,"Congruent - Mild","Hard"
"23pubcvhh0","Ebbinghaus",-0.5,0.15,"Ebbinghaus_0.15000_-0.5000.png","A",2,342609,0.536,"arrowright","arrowright",0,"Incongruent",0.5,"Incongruent - Mild","Easy"
"23pubcvhh0","Ebbinghaus",0.20566,-1.35,"Ebbinghaus_-1.3500_0.20566.png","A",3,344027,0.444,"arrowright","arrowleft",1,"Congruent",0.20566,"Congruent - Strong","Hard"
"23pubcvhh0","Ebbinghaus",0.5,-1.05,"Ebbinghaus_-1.0500_0.50000.png","A",4,345102,0.823,"arrowleft","arrowleft",0,"Congruent",0.5,"Congruent - Strong","Easy"
"23pubcvhh0","Ebbinghaus",-0.20566,-0.45,"Ebbinghaus_-0.4500_-0.20566.png","A",5,346564,0.654,"arrowright","arrowright",0,"Congruent",0.20566,"Congruent - Mild","Hard"
"23pubcvhh0","Ebbinghaus",0.20566,1.35,"Ebbinghaus_1.35000_0.20566.png","A",6,347900,1.081,"arrowright","arrowleft",1,"Incongruent",0.20566,"Incongruent - Strong","Hard"
"23pubcvhh0","Ebbinghaus",0.09684,1.05,"Ebbinghaus_1.05000_0.09684.png","A",7,349749,0.536,"arrowright","arrowleft",1,"Incongruent",0.09684,"Incongruent - Strong","Hard"
"23pubcvhh0","Ebbinghaus",-0.5,1.05,"Ebbinghaus_1.05000_-0.5000.png","A",8,350915,0.484,"arrowright","arrowright",0,"Incongruent",0.5,"Incongruent - Strong","Easy"
"23pubcvhh0","Ebbinghaus",0.3383,-1.05,"Ebbinghaus_-1.0500_0.33830.png","A",9,352075,0.655,"arrowleft","arrowleft",0,"Congruent",0.3383,"Congruent - Strong","Easy"
"23pubcvhh0","Ebbinghaus",-0.09684,-0.75,"Ebbinghaus_-0.7500_-0.09684.png","A",12,359178,0.592,"arrowright","arrowright",0,"Congruent",0.09684,"Congruent - Mild","Hard"
"23pubcvhh0","Ebbinghaus",0.3383,-0.45,"Ebbinghaus_-0.4500_0.33830.png","A",13,360838,0.9,"arrowleft","arrowleft",0,"Congruent",0.3383,"Congruent - Mild","Easy"
"23pubcvhh0","Ebbinghaus",0.5,-1.35,"Ebbinghaus_-1.3500_0.50000.png","A",14,362513,0.587,"arrowleft","arrowleft",0,"Congruent",0.5,"Congruent - Strong","Easy"
"23pubcvhh0","Ebbinghaus",0.20566,0.75,"Ebbinghaus_0.75000_0.20566.png","A",15,363801,0.679,"arrowright","arrowleft",1,"Incongruent",0.20566,"Incongruent - Mild","Hard"
"23pubcvhh0","Ebbinghaus",0.20566,-0.45,"Ebbinghaus_-0.4500_0.20566.png","A",16,365229,0.953,"arrowleft","arrowleft",0,"Congruent",0.20566,"Congruent - Mild","Hard"
"23pubcvhh0","Ebbinghaus",-0.20566,0.15,"Ebbinghaus_0.15000_-0.20566.png","A",17,367095,0.59,"arrowright","arrowright",0,"Incongruent",0.20566,"Incongruent - Mild","Hard"
"23pubcvhh0","Ebbinghaus",-0.5,-0.75,"Ebbinghaus_-0.7500_-0.5000.png","A",18,368557,0.568,"arrowright","arrowright",0,"Congruent",0.5,"Congruent - Mild","Easy"
"23pubcvhh0","Ebbinghaus",0.20566,-0.75,"Ebbinghaus_-0.7500_0.20566.png","A",19,369738,0.757,"arrowleft","arrowleft",0,"Congruent",0.20566,"Congruent - Mild","Hard"
"23pubcvhh0","Ebbinghaus",-0.20566,-1.35,"Ebbinghaus_-1.3500_-0.20566.png","A",20,371380,0.751,"arrowright","arrowright",0,"Congruent",0.20566,"Congruent - Strong","Hard"
"23pubcvhh0","Ebbinghaus",0.3383,-1.35,"Ebbinghaus_-1.3500_0.33830.png","A",21,373211,0.561,"arrowleft","arrowleft",0,"Congruent",0.3383,"Congruent - Strong","Easy"
"23pubcvhh0","Ebbinghaus",-0.09684,1.35,"Ebbinghaus_1.35000_-0.09684.png","A",22,374626,0.65,"arrowleft","arrowright",1,"Incongruent",0.09684,"Incongruent - Strong","Hard"
"23pubcvhh0","Ebbinghaus",0.09684,-1.05,"Ebbinghaus_-1.0500_0.09684.png","A",23,376274,0.54,"arrowleft","arrowleft",0,"Congruent",0.09684,"Congruent - Strong","Hard"
"23pubcvhh0","Ebbinghaus",-0.3383,0.15,"Ebbinghaus_0.15000_-0.3383.png","A",24,377643,0.528,"arrowright","arrowright",0,"Incongruent",0.3383,"Incongruent - Mild","Easy"
"23pubcvhh0","Ebbinghaus",-0.09684,0.15,"Ebbinghaus_0.15000_-0.09684.png","A",25,379207,0.928,"arrowleft","arrowright",1,"Incongruent",0.09684,"Incongruent - Mild","Hard"
"23pubcvhh0","Ebbinghaus",0.5,-0.75,"Ebbinghaus_-0.7500_0.50000.png","A",26,380866,0.564,"arrowleft","arrowleft",0,"Congruent",0.5,"Congruent - Mild","Easy"
"23pubcvhh0","Ebbinghaus",0.3383,1.35,"Ebbinghaus_1.35000_0.33830.png","A",27,382279,0.522,"arrowleft","arrowleft",0,"Incongruent",0.3383,"Incongruent - Strong","Easy"
"23pubcvhh0","Ebbinghaus",0.5,0.45,"Ebbinghaus_0.45000_0.50000.png","A",28,383599,0.499,"arrowleft","arrowleft",0,"Incongruent",0.5,"Incongruent - Mild","Easy"
"23pubcvhh0","Ebbinghaus",-0.20566,-0.75,"Ebbinghaus_-0.7500_-0.20566.png","A",29,384999,0.625,"arrowright","arrowright",0,"Congruent",0.20566,"Congruent - Mild","Hard"
"23pubcvhh0","Ebbinghaus",-0.3383,-1.35,"Ebbinghaus_-1.3500_-0.3383.png","A",30,386317,0.536,"arrowright","arrowright",0,"Congruent",0.3383,"Congruent - Strong","Easy"
"23pubcvhh0","Ebbinghaus",-0.20566,1.05,"Ebbinghaus_1.05000_-0.20566.png","A",31,387824,1.065,"arrowleft","arrowright",1,"Incongruent",0.20566,"Incongruent - Strong","Hard"
"23pubcvhh0","Ebbinghaus",0.5,1.05,"Ebbinghaus_1.05000_0.50000.png","A",33,392324,0.479,"arrowleft","arrowleft",0,"Incongruent",0.5,"Incongruent - Strong","Easy"
"23pubcvhh0","Ebbinghaus",-0.20566,0.45,"Ebbinghaus_0.45000_-0.20566.png","A",34,393504,0.792,"arrowright","arrowright",0,"Incongruent",0.20566,"Incongruent - Mild","Hard"
"23pubcvhh0","Ebbinghaus",0.20566,0.15,"Ebbinghaus_0.15000_0.20566.png","A",35,395349,0.685,"arrowleft","arrowleft",0,"Incongruent",0.20566,"Incongruent - Mild","Hard"
"23pubcvhh0","Ebbinghaus",0.3383,0.75,"Ebbinghaus_0.75000_0.33830.png","A",36,396776,0.722,"arrowleft","arrowleft",0,"Incongruent",0.3383,"Incongruent - Mild","Easy"
"23pubcvhh0","Ebbinghaus",-0.3383,-0.15,"Ebbinghaus_-0.1500_-0.3383.png","A",37,398408,0.74,"arrowright","arrowright",0,"Congruent",0.3383,"Congruent - Mild","Easy"
"23pubcvhh0","Ebbinghaus",-0.09684,-1.05,"Ebbinghaus_-1.0500_-0.09684.png","A",38,399837,1.01,"arrowright","arrowright",0,"Congruent",0.09684,"Congruent - Strong","Hard"
"23pubcvhh0","Ebbinghaus",-0.20566,-0.15,"Ebbinghaus_-0.1500_-0.20566.png","A",39,401613,0.721,"arrowright","arrowright",0,"Congruent",0.20566,"Congruent - Mild","Hard"
"23pubcvhh0","Ebbinghaus",-0.5,-1.05,"Ebbinghaus_-1.0500_-0.5000.png","A",40,403102,0.563,"arrowright","arrowright",0,"Congruent",0.5,"Congruent - Strong","Easy"
"23pubcvhh0","Ebbinghaus",0.5,1.35,"Ebbinghaus_1.35000_0.50000.png","A",41,404344,0.59,"arrowleft","arrowleft",0,"Incongruent",0.5,"Incongruent - Strong","Easy"
"23pubcvhh0","Ebbinghaus",0.09684,-1.35,"Ebbinghaus_-1.3500_0.09684.png","A",43,408544,0.979,"arrowleft","arrowleft",0,"Congruent",0.09684,"Congruent - Strong","Hard"
"23pubcvhh0","Ebbinghaus",0.09684,0.15,"Ebbinghaus_0.15000_0.09684.png","A",44,410254,1.018,"arrowright","arrowleft",1,"Incongruent",0.09684,"Incongruent - Mild","Hard"
"23pubcvhh0","Ebbinghaus",0.5,0.15,"Ebbinghaus_0.15000_0.50000.png","A",45,412207,0.486,"arrowleft","arrowleft",0,"Incongruent",0.5,"Incongruent - Mild","Easy"
"23pubcvhh0","Ebbinghaus",0.5,-0.15,"Ebbinghaus_-0.1500_0.50000.png","A",46,413650,0.54,"arrowleft","arrowleft",0,"Congruent",0.5,"Congruent - Mild","Easy"
"23pubcvhh0","Ebbinghaus",0.3383,-0.75,"Ebbinghaus_-0.7500_0.33830.png","A",47,415218,0.514,"arrowleft","arrowleft",0,"Congruent",0.3383,"Congruent - Mild","Easy"
"23pubcvhh0","Ebbinghaus",0.3383,0.45,"Ebbinghaus_0.45000_0.33830.png","A",48,416772,0.493,"arrowleft","arrowleft",0,"Incongruent",0.3383,"Incongruent - Mild","Easy"
"23pubcvhh0","Ebbinghaus",-0.20566,0.75,"Ebbinghaus_0.75000_-0.20566.png","A",49,418277,0.637,"arrowright","arrowright",0,"Incongruent",0.20566,"Incongruent - Mild","Hard"
"23pubcvhh0","Ebbinghaus",-0.5,-1.35,"Ebbinghaus_-1.3500_-0.5000.png","A",50,420011,0.523,"arrowright","arrowright",0,"Congruent",0.5,"Congruent - Strong","Easy"
"23pubcvhh0","Ebbinghaus",0.5,0.75,"Ebbinghaus_0.75000_0.50000.png","A",51,421146,0.583,"arrowleft","arrowleft",0,"Incongruent",0.5,"Incongruent - Mild","Easy"
"23pubcvhh0","Ebbinghaus",0.09684,-0.45,"Ebbinghaus_-0.4500_0.09684.png","A",52,422638,0.668,"arrowleft","arrowleft",0,"Congruent",0.09684,"Congruent - Mild","Hard"
"23pubcvhh0","Ebbinghaus",0.3383,-0.15,"Ebbinghaus_-0.1500_0.33830.png","A",53,424160,0.649,"arrowleft","arrowleft",0,"Congruent",0.3383,"Congruent - Mild","Easy"
"23pubcvhh0","Ebbinghaus",0.20566,0.45,"Ebbinghaus_0.45000_0.20566.png","A",54,425469,0.503,"arrowleft","arrowleft",0,"Incongruent",0.20566,"Incongruent - Mild","Hard"
"23pubcvhh0","Ebbinghaus",-0.09684,1.05,"Ebbinghaus_1.05000_-0.09684.png","A",55,426730,0.756,"arrowleft","arrowright",1,"Incongruent",0.09684,"Incongruent - Strong","Hard"
"23pubcvhh0","Ebbinghaus",0.09684,1.35,"Ebbinghaus_1.35000_0.09684.png","A",56,428235,0.519,"arrowleft","arrowleft",0,"Incongruent",0.09684,"Incongruent - Strong","Hard"
"23pubcvhh0","Ebbinghaus",-0.20566,-1.05,"Ebbinghaus_-1.0500_-0.20566.png","A",57,429851,0.5,"arrowright","arrowright",0,"Congruent",0.20566,"Congruent - Strong","Hard"
"23pubcvhh0","Ebbinghaus",0.09684,-0.15,"Ebbinghaus_-0.1500_0.09684.png","A",58,431264,0.714,"arrowleft","arrowleft",0,"Congruent",0.09684,"Congruent - Mild","Hard"
"23pubcvhh0","Ebbinghaus",-0.5,-0.45,"Ebbinghaus_-0.4500_-0.5000.png","A",59,432691,0.487,"arrowright","arrowright",0,"Congruent",0.5,"Congruent - Mild","Easy"
"23pubcvhh0","Ebbinghaus",0.3383,0.15,"Ebbinghaus_0.15000_0.33830.png","A",61,436532,0.522,"arrowleft","arrowleft",0,"Incongruent",0.3383,"Incongruent - Mild","Easy"
"23pubcvhh0","Ebbinghaus",0.09684,0.45,"Ebbinghaus_0.45000_0.09684.png","A",62,437959,0.527,"arrowright","arrowleft",1,"Incongruent",0.09684,"Incongruent - Mild","Hard"
"23pubcvhh0","Ebbinghaus",-0.09684,0.75,"Ebbinghaus_0.75000_-0.09684.png","A",63,439168,0.703,"arrowright","arrowright",0,"Incongruent",0.09684,"Incongruent - Mild","Hard"
"23pubcvhh0","Ebbinghaus",-0.5,-0.15,"Ebbinghaus_-0.1500_-0.5000.png","A",64,440685,0.628,"arrowright","arrowright",0,"Congruent",0.5,"Congruent - Mild","Easy"
"23pubcvhh0","Ebbinghaus",-0.09684,-0.15,"Ebbinghaus_-0.1500_-0.09684.png","A",65,442250,0.637,"arrowright","arrowright",0,"Congruent",0.09684,"Congruent - Mild","Hard"
"23pubcvhh0","Ebbinghaus",-0.3383,0.75,"Ebbinghaus_0.75000_-0.3383.png","A",66,443880,0.92,"arrowright","arrowright",0,"Incongruent",0.3383,"Incongruent - Mild","Easy"
"23pubcvhh0","Ebbinghaus",-0.3383,-0.75,"Ebbinghaus_-0.7500_-0.3383.png","A",67,445777,0.687,"arrowright","arrowright",0,"Congruent",0.3383,"Congruent - Mild","Easy"
"23pubcvhh0","Ebbinghaus",-0.3383,-0.45,"Ebbinghaus_-0.4500_-0.3383.png","A",68,447095,0.624,"arrowright","arrowright",0,"Congruent",0.3383,"Congruent - Mild","Easy"
"23pubcvhh0","Ebbinghaus",-0.09684,-0.45,"Ebbinghaus_-0.4500_-0.09684.png","A",69,448554,0.942,"arrowright","arrowright",0,"Congruent",0.09684,"Congruent - Mild","Hard"
"23pubcvhh0","Ebbinghaus",-0.5,0.75,"Ebbinghaus_0.75000_-0.5000.png","A",70,450152,0.462,"arrowright","arrowright",0,"Incongruent",0.5,"Incongruent - Mild","Easy"
"23pubcvhh0","Ebbinghaus",-0.3383,1.35,"Ebbinghaus_1.35000_-0.3383.png","A",71,451615,0.664,"arrowleft","arrowright",1,"Incongruent",0.3383,"Incongruent - Strong","Easy"
"23pubcvhh0","Ebbinghaus",0.20566,-1.05,"Ebbinghaus_-1.0500_0.20566.png","A",72,453370,0.603,"arrowleft","arrowleft",0,"Congruent",0.20566,"Congruent - Strong","Hard"
"23pubcvhh0","Ebbinghaus",0.20566,1.05,"Ebbinghaus_1.05000_0.20566.png","A",73,454832,0.758,"arrowright","arrowleft",1,"Incongruent",0.20566,"Incongruent - Strong","Hard"
"23pubcvhh0","Ebbinghaus",-0.3383,0.45,"Ebbinghaus_0.45000_-0.3383.png","A",75,458459,0.791,"arrowright","arrowright",0,"Incongruent",0.3383,"Incongruent - Mild","Easy"
"23pubcvhh0","Ebbinghaus",-0.3383,-1.05,"Ebbinghaus_-1.0500_-0.3383.png","A",76,459996,0.488,"arrowright","arrowright",0,"Congruent",0.3383,"Congruent - Strong","Easy"
"23pubcvhh0","Ebbinghaus",-0.20566,1.35,"Ebbinghaus_1.35000_-0.20566.png","A",77,461516,0.574,"arrowleft","arrowright",1,"Incongruent",0.20566,"Incongruent - Strong","Hard"
"23pubcvhh0","Ebbinghaus",-0.09684,-1.35,"Ebbinghaus_-1.3500_-0.09684.png","A",78,462948,0.511,"arrowright","arrowright",0,"Congruent",0.09684,"Congruent - Strong","Hard"
"23pubcvhh0","Ebbinghaus",-0.5,0.45,"Ebbinghaus_0.45000_-0.5000.png","A",79,464564,0.512,"arrowright","arrowright",0,"Incongruent",0.5,"Incongruent - Mild","Easy"
"23pubcvhh0","Ebbinghaus",0.5,-0.45,"Ebbinghaus_-0.4500_0.50000.png","A",80,466065,0.502,"arrowleft","arrowleft",0,"Congruent",0.5,"Congruent - Mild","Easy"
"23pubcvhh0","VerticalHorizontal",-0.20298,-4.5,"VerticalHorizontal_-4.5000_-0.20298.png","A",1,3674916,0.708,"arrowright","arrowright",0,"Congruent",0.20298,"Congruent - Mild","Easy"
"23pubcvhh0","VerticalHorizontal",-0.3,13.5,"VerticalHorizontal_13.5000_-0.3000.png","A",2,3676718,0.445,"arrowright","arrowright",0,"Incongruent",0.3,"Incongruent - Mild","Easy"
"23pubcvhh0","VerticalHorizontal",0.0581,-40.5,"VerticalHorizontal_-40.500_0.05810.png","A",3,3678190,0.46,"arrowleft","arrowleft",0,"Congruent",0.0581,"Congruent - Strong","Hard"
"23pubcvhh0","VerticalHorizontal",-0.3,-4.5,"VerticalHorizontal_-4.5000_-0.3000.png","A",4,3679466,0.463,"arrowright","arrowright",0,"Congruent",0.3,"Congruent - Mild","Easy"
"23pubcvhh0","VerticalHorizontal",0.0581,-22.5,"VerticalHorizontal_-22.500_0.05810.png","A",5,3680834,0.404,"arrowleft","arrowleft",0,"Congruent",0.0581,"Congruent - Mild","Hard"
"23pubcvhh0","VerticalHorizontal",0.0581,-4.5,"VerticalHorizontal_-4.5000_0.05810.png","A",6,3682151,0.41,"arrowleft","arrowleft",0,"Congruent",0.0581,"Congruent - Mild","Hard"
