"Participant","Illusion_Type","Illusion_Difference","Illusion_Strength","File","Block","Trial","ISI","RT","Response","Response_Correct","Error","Illusion_Effect","Task_Difficulty","Condition_Illusion","Condition_Difficulty"
"bsvxfugrwp","MullerLyer",-0.30447,3,"MullerLyer_3.00000_-0.30447.png","A",1,539570,0.714,"arrowdown","arrowdown",0,"Incongruent",0.30447,"Incongruent - Mild","Easy"
"bsvxfugrwp","MullerLyer",-0.18509,-21,"MullerLyer_-21.000_-0.18509.png","A",2,541044,0.535,"arrowdown","arrowdown",0,"Congruent",0.18509,"Congruent - Strong","Hard"
"bsvxfugrwp","MullerLyer",-0.08716,-21,"MullerLyer_-21.000_-0.08716.png","A",3,542275,0.57,"arrowdown","arrowdown",0,"Congruent",0.08716,"Congruent - Strong","Hard"
"bsvxfugrwp","MullerLyer",0.08716,27,"MullerLyer_27.0000_0.08716.png","A",4,543604,0.523,"arrowdown","arrowup",1,"Incongruent",0.08716,"Incongruent - Strong","Hard"
"bsvxfugrwp","MullerLyer",0.18509,27,"MullerLyer_27.0000_0.18509.png","A",5,544916,1.878,"arrowup","arrowup",0,"Incongruent",0.18509,"Incongruent - Strong","Hard"
"bsvxfugrwp","MullerLyer",0.45,15,"MullerLyer_15.0000_0.45000.png","A",6,547538,0.664,"arrowup","arrowup",0,"Incongruent",0.45,"Incongruent - Mild","Easy"
"bsvxfugrwp","MullerLyer",0.45,9,"MullerLyer_9.00000_0.45000.png","A",8,551596,0.759,"arrowup","arrowup",0,"Incongruent",0.45,"Incongruent - Mild","Easy"
"bsvxfugrwp","MullerLyer",0.08716,21,"MullerLyer_21.0000_0.08716.png","A",9,553002,0.668,"arrowdown","arrowup",1,"Incongruent",0.08716,"Incongruent - Strong","Hard"
"bsvxfugrwp","MullerLyer",0.45,3,"MullerLyer_3.00000_0.45000.png","A",10,554709,1.309,"arrowup","arrowup",0,"Incongruent",0.45,"Incongruent - Mild","Easy"
"bsvxfugrwp","MullerLyer",-0.45,27,"MullerLyer_27.0000_-0.4500.png","A",11,556652,0.796,"arrowdown","arrowdown",0,"Incongruent",0.45,"Incongruent - Strong","Easy"
"bsvxfugrwp","MullerLyer",0.18509,9,"MullerLyer_9.00000_0.18509.png","A",12,558536,1.258,"arrowup","arrowup",0,"Incongruent",0.18509,"Incongruent - Mild","Hard"
"bsvxfugrwp","MullerLyer",-0.18509,-3,"MullerLyer_-3.0000_-0.18509.png","A",13,560704,0.748,"arrowdown","arrowdown",0,"Congruent",0.18509,"Congruent - Mild","Hard"
"bsvxfugrwp","MullerLyer",0.18509,-27,"MullerLyer_-27.000_0.18509.png","A",14,562103,1.399,"arrowup","arrowup",0,"Congruent",0.18509,"Congruent - Strong","Hard"
"bsvxfugrwp","MullerLyer",-0.18509,-9,"MullerLyer_-9.0000_-0.18509.png","A",16,569431,0.71,"arrowdown","arrowdown",0,"Congruent",0.18509,"Congruent - Mild","Hard"
"bsvxfugrwp","MullerLyer",-0.08716,27,"MullerLyer_27.0000_-0.08716.png","A",17,570897,0.626,"arrowup","arrowdown",1,"Incongruent",0.08716,"Incongruent - Strong","Hard"
"bsvxfugrwp","MullerLyer",-0.45,9,"MullerLyer_9.00000_-0.4500.png","A",18,572445,0.754,"arrowdown","arrowdown",0,"Incongruent",0.45,"Incongruent - Mild","Easy"
"bsvxfugrwp","MullerLyer",0.30447,-21,"MullerLyer_-21.000_0.30447.png","A",19,574136,1.726,"arrowup","arrowup",0,"Congruent",0.30447,"Congruent - Strong","Easy"
"bsvxfugrwp","MullerLyer",-0.45,-3,"MullerLyer_-3.0000_-0.4500.png","A",21,579821,0.598,"arrowdown","arrowdown",0,"Congruent",0.45,"Congruent - Mild","Easy"
"bsvxfugrwp","MullerLyer",-0.45,15,"MullerLyer_15.0000_-0.4500.png","A",22,581105,0.699,"arrowdown","arrowdown",0,"Incongruent",0.45,"Incongruent - Mild","Easy"
"bsvxfugrwp","MullerLyer",0.45,-21,"MullerLyer_-21.000_0.45000.png","A",23,582694,0.796,"arrowup","arrowup",0,"Congruent",0.45,"Congruent - Strong","Easy"
"bsvxfugrwp","MullerLyer",-0.45,21,"MullerLyer_21.0000_-0.4500.png","A",24,584207,0.752,"arrowdown","arrowdown",0,"Incongruent",0.45,"Incongruent - Strong","Easy"
"bsvxfugrwp","MullerLyer",-0.30447,15,"MullerLyer_15.0000_-0.30447.png","A",25,586013,1.382,"arrowdown","arrowdown",0,"Incongruent",0.30447,"Incongruent - Mild","Easy"
"bsvxfugrwp","MullerLyer",-0.08716,-3,"MullerLyer_-3.0000_-0.08716.png","A",26,588024,0.998,"arrowdown","arrowdown",0,"Congruent",0.08716,"Congruent - Mild","Hard"
"bsvxfugrwp","MullerLyer",0.45,-27,"MullerLyer_-27.000_0.45000.png","A",27,589666,0.774,"arrowup","arrowup",0,"Congruent",0.45,"Congruent - Strong","Easy"
"bsvxfugrwp","MullerLyer",-0.18509,21,"MullerLyer_21.0000_-0.18509.png","A",28,591344,1.162,"arrowup","arrowdown",1,"Incongruent",0.18509,"Incongruent - Strong","Hard"
"bsvxfugrwp","MullerLyer",0.18509,-15,"MullerLyer_-15.000_0.18509.png","A",29,593405,0.536,"arrowup","arrowup",0,"Congruent",0.18509,"Congruent - Mild","Hard"
"bsvxfugrwp","MullerLyer",-0.08716,3,"MullerLyer_3.00000_-0.08716.png","A",30,594729,1.133,"arrowdown","arrowdown",0,"Incongruent",0.08716,"Incongruent - Mild","Hard"
"bsvxfugrwp","MullerLyer",0.30447,-3,"MullerLyer_-3.0000_0.30447.png","A",31,596798,0.771,"arrowup","arrowup",0,"Congruent",0.30447,"Congruent - Mild","Easy"
"bsvxfugrwp","MullerLyer",-0.45,-27,"MullerLyer_-27.000_-0.4500.png","A",32,598431,0.709,"arrowdown","arrowdown",0,"Congruent",0.45,"Congruent - Strong","Easy"
"bsvxfugrwp","MullerLyer",-0.30447,-21,"MullerLyer_-21.000_-0.30447.png","A",33,600080,0.57,"arrowdown","arrowdown",0,"Congruent",0.30447,"Congruent - Strong","Easy"
"bsvxfugrwp","MullerLyer",-0.30447,-9,"MullerLyer_-9.0000_-0.30447.png","A",34,601328,0.853,"arrowdown","arrowdown",0,"Congruent",0.30447,"Congruent - Mild","Easy"
"bsvxfugrwp","MullerLyer",0.45,27,"MullerLyer_27.0000_0.45000.png","A",35,602821,0.737,"arrowup","arrowup",0,"Incongruent",0.45,"Incongruent - Strong","Easy"
"bsvxfugrwp","MullerLyer",0.08716,-21,"MullerLyer_-21.000_0.08716.png","A",36,604397,0.458,"arrowup","arrowup",0,"Congruent",0.08716,"Congruent - Strong","Hard"
"bsvxfugrwp","MullerLyer",0.08716,-27,"MullerLyer_-27.000_0.08716.png","A",37,605567,0.475,"arrowup","arrowup",0,"Congruent",0.08716,"Congruent - Strong","Hard"
"bsvxfugrwp","MullerLyer",-0.30447,-3,"MullerLyer_-3.0000_-0.30447.png","A",39,610165,0.645,"arrowdown","arrowdown",0,"Congruent",0.30447,"Congruent - Mild","Easy"
"bsvxfugrwp","MullerLyer",0.08716,-9,"MullerLyer_-9.0000_0.08716.png","A",40,611567,0.757,"arrowup","arrowup",0,"Congruent",0.08716,"Congruent - Mild","Hard"
"bsvxfugrwp","MullerLyer",-0.45,-21,"MullerLyer_-21.000_-0.4500.png","A",41,613018,0.568,"arrowdown","arrowdown",0,"Congruent",0.45,"Congruent - Strong","Easy"
"bsvxfugrwp","MullerLyer",-0.08716,-15,"MullerLyer_-15.000_-0.08716.png","A",42,614652,0.569,"arrowdown","arrowdown",0,"Congruent",0.08716,"Congruent - Mild","Hard"
"bsvxfugrwp","MullerLyer",-0.30447,21,"MullerLyer_21.0000_-0.30447.png","A",43,616088,1.522,"arrowdown","arrowdown",0,"Incongruent",0.30447,"Incongruent - Strong","Easy"
"bsvxfugrwp","MullerLyer",0.08716,-3,"MullerLyer_-3.0000_0.08716.png","A",44,618536,0.691,"arrowup","arrowup",0,"Congruent",0.08716,"Congruent - Mild","Hard"
"bsvxfugrwp","MullerLyer",0.30447,-15,"MullerLyer_-15.000_0.30447.png","A",45,620282,0.497,"arrowup","arrowup",0,"Congruent",0.30447,"Congruent - Mild","Easy"
"bsvxfugrwp","MullerLyer",0.45,-9,"MullerLyer_-9.0000_0.45000.png","A",46,621866,0.529,"arrowup","arrowup",0,"Congruent",0.45,"Congruent - Mild","Easy"
"bsvxfugrwp","MullerLyer",-0.45,-9,"MullerLyer_-9.0000_-0.4500.png","A",47,623055,0.701,"arrowdown","arrowdown",0,"Congruent",0.45,"Congruent - Mild","Easy"
"bsvxfugrwp","MullerLyer",-0.45,3,"MullerLyer_3.00000_-0.4500.png","A",48,624807,0.724,"arrowdown","arrowdown",0,"Incongruent",0.45,"Incongruent - Mild","Easy"
"bsvxfugrwp","MullerLyer",-0.18509,3,"MullerLyer_3.00000_-0.18509.png","A",50,629335,0.605,"arrowdown","arrowdown",0,"Incongruent",0.18509,"Incongruent - Mild","Hard"
"bsvxfugrwp","MullerLyer",0.30447,-9,"MullerLyer_-9.0000_0.30447.png","A",51,631015,0.724,"arrowup","arrowup",0,"Congruent",0.30447,"Congruent - Mild","Easy"
"bsvxfugrwp","MullerLyer",0.18509,-21,"MullerLyer_-21.000_0.18509.png","A",52,632796,0.49,"arrowup","arrowup",0,"Congruent",0.18509,"Congruent - Strong","Hard"
"bsvxfugrwp","MullerLyer",-0.30447,-15,"MullerLyer_-15.000_-0.30447.png","A",53,633925,0.662,"arrowdown","arrowdown",0,"Congruent",0.30447,"Congruent - Mild","Easy"
"bsvxfugrwp","MullerLyer",-0.08716,-27,"MullerLyer_-27.000_-0.08716.png","A",55,638690,0.754,"arrowdown","arrowdown",0,"Congruent",0.08716,"Congruent - Strong","Hard"
"bsvxfugrwp","MullerLyer",0.30447,9,"MullerLyer_9.00000_0.30447.png","A",57,643326,0.551,"arrowup","arrowup",0,"Incongruent",0.30447,"Incongruent - Mild","Easy"
"bsvxfugrwp","MullerLyer",0.18509,-3,"MullerLyer_-3.0000_0.18509.png","A",58,644879,0.528,"arrowup","arrowup",0,"Congruent",0.18509,"Congruent - Mild","Hard"
"bsvxfugrwp","MullerLyer",-0.18509,27,"MullerLyer_27.0000_-0.18509.png","A",59,646523,1.13,"arrowup","arrowdown",1,"Incongruent",0.18509,"Incongruent - Strong","Hard"
"bsvxfugrwp","MullerLyer",-0.45,-15,"MullerLyer_-15.000_-0.4500.png","A",60,648636,0.666,"arrowdown","arrowdown",0,"Congruent",0.45,"Congruent - Mild","Easy"
"bsvxfugrwp","MullerLyer",0.30447,3,"MullerLyer_3.00000_0.30447.png","A",61,650289,0.673,"arrowup","arrowup",0,"Incongruent",0.30447,"Incongruent - Mild","Easy"
"bsvxfugrwp","MullerLyer",0.18509,15,"MullerLyer_15.0000_0.18509.png","A",62,651636,1.196,"arrowup","arrowup",0,"Incongruent",0.18509,"Incongruent - Mild","Hard"
"bsvxfugrwp","MullerLyer",0.45,-3,"MullerLyer_-3.0000_0.45000.png","A",63,653553,0.728,"arrowup","arrowup",0,"Congruent",0.45,"Congruent - Mild","Easy"
"bsvxfugrwp","MullerLyer",-0.30447,-27,"MullerLyer_-27.000_-0.30447.png","A",64,655268,0.75,"arrowdown","arrowdown",0,"Congruent",0.30447,"Congruent - Strong","Easy"
"bsvxfugrwp","MullerLyer",-0.08716,21,"MullerLyer_21.0000_-0.08716.png","A",65,656864,0.638,"arrowup","arrowdown",1,"Incongruent",0.08716,"Incongruent - Strong","Hard"
"bsvxfugrwp","MullerLyer",-0.30447,9,"MullerLyer_9.00000_-0.30447.png","A",66,658493,0.66,"arrowdown","arrowdown",0,"Incongruent",0.30447,"Incongruent - Mild","Easy"
"bsvxfugrwp","MullerLyer",0.45,21,"MullerLyer_21.0000_0.45000.png","A",67,659881,0.647,"arrowup","arrowup",0,"Incongruent",0.45,"Incongruent - Strong","Easy"
"bsvxfugrwp","MullerLyer",0.30447,-27,"MullerLyer_-27.000_0.30447.png","A",68,661530,0.519,"arrowup","arrowup",0,"Congruent",0.30447,"Congruent - Strong","Easy"
"bsvxfugrwp","MullerLyer",-0.18509,-15,"MullerLyer_-15.000_-0.18509.png","A",69,663013,0.739,"arrowdown","arrowdown",0,"Congruent",0.18509,"Congruent - Mild","Hard"
"bsvxfugrwp","MullerLyer",-0.18509,-27,"MullerLyer_-27.000_-0.18509.png","A",70,664576,0.6,"arrowdown","arrowdown",0,"Congruent",0.18509,"Congruent - Strong","Hard"
"bsvxfugrwp","MullerLyer",0.18509,21,"MullerLyer_21.0000_0.18509.png","A",71,666136,0.895,"arrowdown","arrowup",1,"Incongruent",0.18509,"Incongruent - Strong","Hard"
"bsvxfugrwp","MullerLyer",0.08716,-15,"MullerLyer_-15.000_0.08716.png","A",72,667711,0.699,"arrowup","arrowup",0,"Congruent",0.08716,"Congruent - Mild","Hard"
"bsvxfugrwp","MullerLyer",0.30447,15,"MullerLyer_15.0000_0.30447.png","A",73,669180,0.32,"arrowup","arrowup",0,"Incongruent",0.30447,"Incongruent - Mild","Easy"
"bsvxfugrwp","MullerLyer",0.45,-15,"MullerLyer_-15.000_0.45000.png","A",74,670335,0.451,"arrowup","arrowup",0,"Congruent",0.45,"Congruent - Mild","Easy"
"bsvxfugrwp","MullerLyer",0.08716,9,"MullerLyer_9.00000_0.08716.png","A",75,671514,0.875,"arrowdown","arrowup",1,"Incongruent",0.08716,"Incongruent - Mild","Hard"
"bsvxfugrwp","MullerLyer",0.30447,27,"MullerLyer_27.0000_0.30447.png","A",76,673445,0.853,"arrowdown","arrowup",1,"Incongruent",0.30447,"Incongruent - Strong","Easy"
"bsvxfugrwp","MullerLyer",-0.08716,15,"MullerLyer_15.0000_-0.08716.png","A",77,675245,0.72,"arrowup","arrowdown",1,"Incongruent",0.08716,"Incongruent - Mild","Hard"
"bsvxfugrwp","MullerLyer",0.18509,-9,"MullerLyer_-9.0000_0.18509.png","A",78,676639,0.527,"arrowup","arrowup",0,"Congruent",0.18509,"Congruent - Mild","Hard"
"bsvxfugrwp","MullerLyer",-0.08716,-9,"MullerLyer_-9.0000_-0.08716.png","A",79,677859,0.594,"arrowdown","arrowdown",0,"Congruent",0.08716,"Congruent - Mild","Hard"
"bsvxfugrwp","MullerLyer",0.30447,21,"MullerLyer_21.0000_0.30447.png","A",80,679546,1.396,"arrowup","arrowup",0,"Incongruent",0.30447,"Incongruent - Strong","Easy"
"bsvxfugrwp","Ebbinghaus",0.5,-0.45,"Ebbinghaus_-0.4500_0.50000.png","A",1,697935,1.044,"arrowleft","arrowleft",0,"Congruent",0.5,"Congruent - Mild","Easy"
"bsvxfugrwp","Ebbinghaus",0.5,1.05,"Ebbinghaus_1.05000_0.50000.png","A",2,699665,1.348,"arrowleft","arrowleft",0,"Incongruent",0.5,"Incongruent - Strong","Easy"
"bsvxfugrwp","Ebbinghaus",0.3383,-0.15,"Ebbinghaus_-0.1500_0.33830.png","A",3,701688,1.514,"arrowleft","arrowleft",0,"Congruent",0.3383,"Congruent - Mild","Easy"
"bsvxfugrwp","Ebbinghaus",-0.3383,0.45,"Ebbinghaus_0.45000_-0.3383.png","A",4,704031,0.751,"arrowright","arrowright",0,"Incongruent",0.3383,"Incongruent - Mild","Easy"
"bsvxfugrwp","Ebbinghaus",-0.20566,-1.35,"Ebbinghaus_-1.3500_-0.20566.png","A",5,705745,0.738,"arrowright","arrowright",0,"Congruent",0.20566,"Congruent - Strong","Hard"
"bsvxfugrwp","Ebbinghaus",-0.09684,1.05,"Ebbinghaus_1.05000_-0.09684.png","A",7,710507,1.763,"arrowleft","arrowright",1,"Incongruent",0.09684,"Incongruent - Strong","Hard"
"bsvxfugrwp","Ebbinghaus",0.09684,-0.15,"Ebbinghaus_-0.1500_0.09684.png","A",8,713283,1.858,"arrowleft","arrowleft",0,"Congruent",0.09684,"Congruent - Mild","Hard"
"bsvxfugrwp","Ebbinghaus",-0.3383,-0.15,"Ebbinghaus_-0.1500_-0.3383.png","A",9,715786,0.759,"arrowright","arrowright",0,"Congruent",0.3383,"Congruent - Mild","Easy"
"bsvxfugrwp","Ebbinghaus",-0.5,0.45,"Ebbinghaus_0.45000_-0.5000.png","A",10,717630,0.575,"arrowright","arrowright",0,"Incongruent",0.5,"Incongruent - Mild","Easy"
"bsvxfugrwp","Ebbinghaus",0.5,1.35,"Ebbinghaus_1.35000_0.50000.png","A",11,719205,1.52,"arrowleft","arrowleft",0,"Incongruent",0.5,"Incongruent - Strong","Easy"
"bsvxfugrwp","Ebbinghaus",-0.20566,-0.75,"Ebbinghaus_-0.7500_-0.20566.png","A",12,721364,1.033,"arrowright","arrowright",0,"Congruent",0.20566,"Congruent - Mild","Hard"
"bsvxfugrwp","Ebbinghaus",0.3383,0.75,"Ebbinghaus_0.75000_0.33830.png","A",13,723223,1.671,"arrowleft","arrowleft",0,"Incongruent",0.3383,"Incongruent - Mild","Easy"
"bsvxfugrwp","Ebbinghaus",0.3383,-0.45,"Ebbinghaus_-0.4500_0.33830.png","A",14,725781,0.998,"arrowleft","arrowleft",0,"Congruent",0.3383,"Congruent - Mild","Easy"
"bsvxfugrwp","Ebbinghaus",-0.20566,-0.15,"Ebbinghaus_-0.1500_-0.20566.png","A",15,727660,1.508,"arrowright","arrowright",0,"Congruent",0.20566,"Congruent - Mild","Hard"
"bsvxfugrwp","Ebbinghaus",0.5,-1.05,"Ebbinghaus_-1.0500_0.50000.png","A",16,730258,0.861,"arrowleft","arrowleft",0,"Congruent",0.5,"Congruent - Strong","Easy"
"bsvxfugrwp","Ebbinghaus",-0.3383,-0.45,"Ebbinghaus_-0.4500_-0.3383.png","A",17,732140,0.656,"arrowright","arrowright",0,"Congruent",0.3383,"Congruent - Mild","Easy"
"bsvxfugrwp","Ebbinghaus",-0.3383,-1.35,"Ebbinghaus_-1.3500_-0.3383.png","A",18,733791,0.636,"arrowright","arrowright",0,"Congruent",0.3383,"Congruent - Strong","Easy"
"bsvxfugrwp","Ebbinghaus",0.3383,-1.35,"Ebbinghaus_-1.3500_0.33830.png","A",19,735234,0.799,"arrowleft","arrowleft",0,"Congruent",0.3383,"Congruent - Strong","Easy"
"bsvxfugrwp","Ebbinghaus",-0.5,-0.45,"Ebbinghaus_-0.4500_-0.5000.png","A",20,737018,0.669,"arrowright","arrowright",0,"Congruent",0.5,"Congruent - Mild","Easy"
"bsvxfugrwp","Ebbinghaus",-0.3383,-0.75,"Ebbinghaus_-0.7500_-0.3383.png","A",21,738388,1.188,"arrowright","arrowright",0,"Congruent",0.3383,"Congruent - Mild","Easy"
"bsvxfugrwp","Ebbinghaus",-0.20566,1.35,"Ebbinghaus_1.35000_-0.20566.png","A",23,743435,1.717,"arrowleft","arrowright",1,"Incongruent",0.20566,"Incongruent - Strong","Hard"
"bsvxfugrwp","Ebbinghaus",-0.5,0.15,"Ebbinghaus_0.15000_-0.5000.png","A",24,746217,0.812,"arrowright","arrowright",0,"Incongruent",0.5,"Incongruent - Mild","Easy"
"bsvxfugrwp","Ebbinghaus",-0.5,-0.15,"Ebbinghaus_-0.1500_-0.5000.png","A",25,747949,0.843,"arrowright","arrowright",0,"Congruent",0.5,"Congruent - Mild","Easy"
"bsvxfugrwp","Ebbinghaus",-0.09684,-0.45,"Ebbinghaus_-0.4500_-0.09684.png","A",27,752691,0.871,"arrowright","arrowright",0,"Congruent",0.09684,"Congruent - Mild","Hard"
"bsvxfugrwp","Ebbinghaus",-0.5,-1.05,"Ebbinghaus_-1.0500_-0.5000.png","A",28,754382,0.555,"arrowright","arrowright",0,"Congruent",0.5,"Congruent - Strong","Easy"
"bsvxfugrwp","Ebbinghaus",-0.5,0.75,"Ebbinghaus_0.75000_-0.5000.png","A",30,761462,0.693,"arrowright","arrowright",0,"Incongruent",0.5,"Incongruent - Mild","Easy"
"bsvxfugrwp","Ebbinghaus",0.20566,-1.05,"Ebbinghaus_-1.0500_0.20566.png","A",31,762927,0.873,"arrowleft","arrowleft",0,"Congruent",0.20566,"Congruent - Strong","Hard"
"bsvxfugrwp","Ebbinghaus",0.5,0.75,"Ebbinghaus_0.75000_0.50000.png","A",32,764597,0.944,"arrowleft","arrowleft",0,"Incongruent",0.5,"Incongruent - Mild","Easy"
"bsvxfugrwp","Ebbinghaus",0.3383,0.15,"Ebbinghaus_0.15000_0.33830.png","A",33,766556,1.594,"arrowleft","arrowleft",0,"Incongruent",0.3383,"Incongruent - Mild","Easy"
"bsvxfugrwp","Ebbinghaus",-0.5,1.05,"Ebbinghaus_1.05000_-0.5000.png","A",34,769237,0.536,"arrowright","arrowright",0,"Incongruent",0.5,"Incongruent - Strong","Easy"
"bsvxfugrwp","Ebbinghaus",0.5,-0.15,"Ebbinghaus_-0.1500_0.50000.png","A",35,770416,0.778,"arrowleft","arrowleft",0,"Congruent",0.5,"Congruent - Mild","Easy"
"bsvxfugrwp","Ebbinghaus",0.5,-1.35,"Ebbinghaus_-1.3500_0.50000.png","A",36,771856,0.69,"arrowleft","arrowleft",0,"Congruent",0.5,"Congruent - Strong","Easy"
"bsvxfugrwp","Ebbinghaus",-0.20566,0.75,"Ebbinghaus_0.75000_-0.20566.png","A",38,778777,1.283,"arrowright","arrowright",0,"Incongruent",0.20566,"Incongruent - Mild","Hard"
"bsvxfugrwp","Ebbinghaus",0.09684,-0.45,"Ebbinghaus_-0.4500_0.09684.png","A",39,780862,1.27,"arrowleft","arrowleft",0,"Congruent",0.09684,"Congruent - Mild","Hard"
"bsvxfugrwp","Ebbinghaus",-0.09684,-0.15,"Ebbinghaus_-0.1500_-0.09684.png","A",40,782939,0.785,"arrowright","arrowright",0,"Congruent",0.09684,"Congruent - Mild","Hard"
"bsvxfugrwp","Ebbinghaus",-0.20566,-1.05,"Ebbinghaus_-1.0500_-0.20566.png","A",41,784554,0.583,"arrowright","arrowright",0,"Congruent",0.20566,"Congruent - Strong","Hard"
"bsvxfugrwp","Ebbinghaus",0.3383,-0.75,"Ebbinghaus_-0.7500_0.33830.png","A",42,785912,1.067,"arrowleft","arrowleft",0,"Congruent",0.3383,"Congruent - Mild","Easy"
"bsvxfugrwp","Ebbinghaus",-0.20566,-0.45,"Ebbinghaus_-0.4500_-0.20566.png","A",44,791279,0.633,"arrowright","arrowright",0,"Congruent",0.20566,"Congruent - Mild","Hard"
"bsvxfugrwp","Ebbinghaus",0.3383,-1.05,"Ebbinghaus_-1.0500_0.33830.png","A",45,792741,0.803,"arrowleft","arrowleft",0,"Congruent",0.3383,"Congruent - Strong","Easy"
"bsvxfugrwp","Ebbinghaus",-0.09684,-1.35,"Ebbinghaus_-1.3500_-0.09684.png","A",47,798469,0.651,"arrowright","arrowright",0,"Congruent",0.09684,"Congruent - Strong","Hard"
"bsvxfugrwp","Ebbinghaus",-0.5,1.35,"Ebbinghaus_1.35000_-0.5000.png","A",48,800174,0.902,"arrowleft","arrowright",1,"Incongruent",0.5,"Incongruent - Strong","Easy"
"bsvxfugrwp","Ebbinghaus",-0.20566,0.15,"Ebbinghaus_0.15000_-0.20566.png","A",49,802168,0.686,"arrowright","arrowright",0,"Incongruent",0.20566,"Incongruent - Mild","Hard"
"bsvxfugrwp","Ebbinghaus",0.20566,-0.75,"Ebbinghaus_-0.7500_0.20566.png","A",50,803759,1.17,"arrowleft","arrowleft",0,"Congruent",0.20566,"Congruent - Mild","Hard"
"bsvxfugrwp","Ebbinghaus",0.5,0.15,"Ebbinghaus_0.15000_0.50000.png","A",51,805864,0.822,"arrowleft","arrowleft",0,"Incongruent",0.5,"Incongruent - Mild","Easy"
"bsvxfugrwp","Ebbinghaus",-0.09684,-0.75,"Ebbinghaus_-0.7500_-0.09684.png","A",52,807720,0.703,"arrowright","arrowright",0,"Congruent",0.09684,"Congruent - Mild","Hard"
"bsvxfugrwp","Ebbinghaus",0.20566,0.45,"Ebbinghaus_0.45000_0.20566.png","A",53,809350,1.663,"arrowright","arrowleft",1,"Incongruent",0.20566,"Incongruent - Mild","Hard"
"bsvxfugrwp","Ebbinghaus",0.20566,-0.45,"Ebbinghaus_-0.4500_0.20566.png","A",54,812054,0.983,"arrowleft","arrowleft",0,"Congruent",0.20566,"Congruent - Mild","Hard"
"bsvxfugrwp","Ebbinghaus",0.20566,-1.35,"Ebbinghaus_-1.3500_0.20566.png","A",55,814101,0.674,"arrowleft","arrowleft",0,"Congruent",0.20566,"Congruent - Strong","Hard"
"bsvxfugrwp","Ebbinghaus",0.3383,0.45,"Ebbinghaus_0.45000_0.33830.png","A",56,815705,1.068,"arrowleft","arrowleft",0,"Incongruent",0.3383,"Incongruent - Mild","Easy"
"bsvxfugrwp","Ebbinghaus",-0.3383,1.05,"Ebbinghaus_1.05000_-0.3383.png","A",58,820867,1.262,"arrowright","arrowright",0,"Incongruent",0.3383,"Incongruent - Strong","Easy"
"bsvxfugrwp","Ebbinghaus",-0.3383,0.15,"Ebbinghaus_0.15000_-0.3383.png","A",60,826973,0.841,"arrowright","arrowright",0,"Incongruent",0.3383,"Incongruent - Mild","Easy"
"bsvxfugrwp","Ebbinghaus",-0.09684,1.35,"Ebbinghaus_1.35000_-0.09684.png","A",61,828713,1.036,"arrowleft","arrowright",1,"Incongruent",0.09684,"Incongruent - Strong","Hard"
"bsvxfugrwp","Ebbinghaus",0.5,-0.75,"Ebbinghaus_-0.7500_0.50000.png","A",62,830699,0.85,"arrowleft","arrowleft",0,"Congruent",0.5,"Congruent - Mild","Easy"
"bsvxfugrwp","Ebbinghaus",0.5,0.45,"Ebbinghaus_0.45000_0.50000.png","A",63,832300,0.713,"arrowleft","arrowleft",0,"Incongruent",0.5,"Incongruent - Mild","Easy"
"bsvxfugrwp","Ebbinghaus",-0.5,-1.35,"Ebbinghaus_-1.3500_-0.5000.png","A",65,836800,0.699,"arrowright","arrowright",0,"Congruent",0.5,"Congruent - Strong","Easy"
"bsvxfugrwp","Ebbinghaus",0.09684,-1.35,"Ebbinghaus_-1.3500_0.09684.png","A",66,838557,0.612,"arrowleft","arrowleft",0,"Congruent",0.09684,"Congruent - Strong","Hard"
"bsvxfugrwp","Ebbinghaus",0.3383,1.05,"Ebbinghaus_1.05000_0.33830.png","A",67,840146,1.139,"arrowright","arrowleft",1,"Incongruent",0.3383,"Incongruent - Strong","Easy"
"bsvxfugrwp","Ebbinghaus",0.20566,1.35,"Ebbinghaus_1.35000_0.20566.png","A",68,842276,0.936,"arrowright","arrowleft",1,"Incongruent",0.20566,"Incongruent - Strong","Hard"
"bsvxfugrwp","Ebbinghaus",0.09684,-1.05,"Ebbinghaus_-1.0500_0.09684.png","A",69,843846,0.825,"arrowleft","arrowleft",0,"Congruent",0.09684,"Congruent - Strong","Hard"
"bsvxfugrwp","Ebbinghaus",0.09684,0.45,"Ebbinghaus_0.45000_0.09684.png","A",70,845538,0.655,"arrowright","arrowleft",1,"Incongruent",0.09684,"Incongruent - Mild","Hard"
"bsvxfugrwp","Ebbinghaus",-0.09684,0.15,"Ebbinghaus_0.15000_-0.09684.png","A",71,846881,0.691,"arrowright","arrowright",0,"Incongruent",0.09684,"Incongruent - Mild","Hard"
"bsvxfugrwp","Ebbinghaus",-0.3383,-1.05,"Ebbinghaus_-1.0500_-0.3383.png","A",72,848252,0.654,"arrowright","arrowright",0,"Congruent",0.3383,"Congruent - Strong","Easy"
"bsvxfugrwp","Ebbinghaus",-0.20566,1.05,"Ebbinghaus_1.05000_-0.20566.png","A",73,849660,0.659,"arrowleft","arrowright",1,"Incongruent",0.20566,"Incongruent - Strong","Hard"
"bsvxfugrwp","Ebbinghaus",-0.5,-0.75,"Ebbinghaus_-0.7500_-0.5000.png","A",74,851015,0.749,"arrowright","arrowright",0,"Congruent",0.5,"Congruent - Mild","Easy"
"bsvxfugrwp","Ebbinghaus",0.09684,1.35,"Ebbinghaus_1.35000_0.09684.png","A",75,852804,0.6,"arrowright","arrowleft",1,"Incongruent",0.09684,"Incongruent - Strong","Hard"
"bsvxfugrwp","Ebbinghaus",-0.09684,-1.05,"Ebbinghaus_-1.0500_-0.09684.png","A",76,854216,0.275,"arrowright","arrowright",0,"Congruent",0.09684,"Congruent - Strong","Hard"
"bsvxfugrwp","Ebbinghaus",-0.20566,0.45,"Ebbinghaus_0.45000_-0.20566.png","A",77,855350,1.058,"arrowright","arrowright",0,"Incongruent",0.20566,"Incongruent - Mild","Hard"
"bsvxfugrwp","Ebbinghaus",-0.3383,0.75,"Ebbinghaus_0.75000_-0.3383.png","A",78,857402,0.904,"arrowleft","arrowright",1,"Incongruent",0.3383,"Incongruent - Mild","Easy"
"bsvxfugrwp","Ebbinghaus",0.20566,0.15,"Ebbinghaus_0.15000_0.20566.png","A",79,859102,0.963,"arrowleft","arrowleft",0,"Incongruent",0.20566,"Incongruent - Mild","Hard"
"bsvxfugrwp","Ebbinghaus",-0.09684,0.75,"Ebbinghaus_0.75000_-0.09684.png","A",80,860987,1.554,"arrowleft","arrowright",1,"Incongruent",0.09684,"Incongruent - Mild","Hard"
"bsvxfugrwp","VerticalHorizontal",0.20298,-13.5,"VerticalHorizontal_-13.500_0.20298.png","A",1,883111,0.953,"arrowleft","arrowleft",0,"Congruent",0.20298,"Congruent - Mild","Easy"
"bsvxfugrwp","VerticalHorizontal",-0.3,-13.5,"VerticalHorizontal_-13.500_-0.3000.png","A",2,885055,0.559,"arrowright","arrowright",0,"Congruent",0.3,"Congruent - Mild","Easy"
"bsvxfugrwp","VerticalHorizontal",-0.20298,-31.5,"VerticalHorizontal_-31.500_-0.20298.png","A",3,886426,0.644,"arrowright","arrowright",0,"Congruent",0.20298,"Congruent - Strong","Easy"
"bsvxfugrwp","VerticalHorizontal",0.12339,4.5,"VerticalHorizontal_4.50000_0.12339.png","A",4,887959,0.635,"arrowleft","arrowleft",0,"Incongruent",0.12339,"Incongruent - Mild","Hard"
"bsvxfugrwp","VerticalHorizontal",0.0581,22.5,"VerticalHorizontal_22.5000_0.05810.png","A",5,889607,1.16,"arrowleft","arrowleft",0,"Incongruent",0.0581,"Incongruent - Mild","Hard"
"bsvxfugrwp","VerticalHorizontal",-0.20298,-40.5,"VerticalHorizontal_-40.500_-0.20298.png","A",6,891598,0.529,"arrowright","arrowright",0,"Congruent",0.20298,"Congruent - Strong","Easy"
"bsvxfugrwp","VerticalHorizontal",0.3,40.5,"VerticalHorizontal_40.5000_0.30000.png","A",7,893060,0.591,"arrowleft","arrowleft",0,"Incongruent",0.3,"Incongruent - Strong","Easy"
"bsvxfugrwp","VerticalHorizontal",0.3,13.5,"VerticalHorizontal_13.5000_0.30000.png","A",8,894725,0.484,"arrowleft","arrowleft",0,"Incongruent",0.3,"Incongruent - Mild","Easy"
"bsvxfugrwp","VerticalHorizontal",-0.3,22.5,"VerticalHorizontal_22.5000_-0.3000.png","A",9,896277,0.424,"arrowright","arrowright",0,"Incongruent",0.3,"Incongruent - Mild","Easy"
"bsvxfugrwp","VerticalHorizontal",0.3,31.5,"VerticalHorizontal_31.5000_0.30000.png","A",10,897805,0.647,"arrowleft","arrowleft",0,"Incongruent",0.3,"Incongruent - Strong","Easy"
"bsvxfugrwp","VerticalHorizontal",-0.0581,13.5,"VerticalHorizontal_13.5000_-0.0581.png","A",11,899402,0.831,"arrowright","arrowright",0,"Incongruent",0.0581,"Incongruent - Mild","Hard"
"bsvxfugrwp","VerticalHorizontal",-0.3,40.5,"VerticalHorizontal_40.5000_-0.3000.png","A",12,900969,0.422,"arrowright","arrowright",0,"Incongruent",0.3,"Incongruent - Strong","Easy"
"bsvxfugrwp","VerticalHorizontal",-0.20298,40.5,"VerticalHorizontal_40.5000_-0.20298.png","A",13,902432,1.16,"arrowright","arrowright",0,"Incongruent",0.20298,"Incongruent - Strong","Easy"
"bsvxfugrwp","VerticalHorizontal",0.0581,13.5,"VerticalHorizontal_13.5000_0.05810.png","A",14,904519,1.439,"arrowleft","arrowleft",0,"Incongruent",0.0581,"Incongruent - Mild","Hard"
"bsvxfugrwp","VerticalHorizontal",0.12339,40.5,"VerticalHorizontal_40.5000_0.12339.png","A",15,906799,1.402,"arrowleft","arrowleft",0,"Incongruent",0.12339,"Incongruent - Strong","Hard"
"bsvxfugrwp","VerticalHorizontal",0.12339,-31.5,"VerticalHorizontal_-31.500_0.12339.png","A",16,909179,1.497,"arrowleft","arrowleft",0,"Congruent",0.12339,"Congruent - Strong","Hard"
"bsvxfugrwp","VerticalHorizontal",0.12339,-22.5,"VerticalHorizontal_-22.500_0.12339.png","A",17,911785,1.458,"arrowleft","arrowleft",0,"Congruent",0.12339,"Congruent - Mild","Hard"
"bsvxfugrwp","VerticalHorizontal",-0.12339,-40.5,"VerticalHorizontal_-40.500_-0.12339.png","A",18,914092,1.491,"arrowright","arrowright",0,"Congruent",0.12339,"Congruent - Strong","Hard"
"bsvxfugrwp","VerticalHorizontal",-0.3,-22.5,"VerticalHorizontal_-22.500_-0.3000.png","A",19,916260,0.471,"arrowright","arrowright",0,"Congruent",0.3,"Congruent - Mild","Easy"
"bsvxfugrwp","VerticalHorizontal",0.3,22.5,"VerticalHorizontal_22.5000_0.30000.png","A",20,917668,0.896,"arrowleft","arrowleft",0,"Incongruent",0.3,"Incongruent - Mild","Easy"
"bsvxfugrwp","VerticalHorizontal",0.0581,4.5,"VerticalHorizontal_4.50000_0.05810.png","A",21,919628,1.396,"arrowleft","arrowleft",0,"Incongruent",0.0581,"Incongruent - Mild","Hard"
"bsvxfugrwp","VerticalHorizontal",0.3,-4.5,"VerticalHorizontal_-4.5000_0.30000.png","A",22,921654,0.724,"arrowleft","arrowleft",0,"Congruent",0.3,"Congruent - Mild","Easy"
"bsvxfugrwp","VerticalHorizontal",-0.0581,4.5,"VerticalHorizontal_4.50000_-0.0581.png","A",23,923399,0.546,"arrowright","arrowright",0,"Incongruent",0.0581,"Incongruent - Mild","Hard"
"bsvxfugrwp","VerticalHorizontal",-0.20298,22.5,"VerticalHorizontal_22.5000_-0.20298.png","A",25,927933,0.58,"arrowright","arrowright",0,"Incongruent",0.20298,"Incongruent - Mild","Easy"
"bsvxfugrwp","VerticalHorizontal",0.3,-40.5,"VerticalHorizontal_-40.500_0.30000.png","A",26,929214,0.564,"arrowleft","arrowleft",0,"Congruent",0.3,"Congruent - Strong","Easy"
"bsvxfugrwp","VerticalHorizontal",-0.20298,13.5,"VerticalHorizontal_13.5000_-0.20298.png","A",27,930832,0.892,"arrowright","arrowright",0,"Incongruent",0.20298,"Incongruent - Mild","Easy"
"bsvxfugrwp","VerticalHorizontal",-0.12339,4.5,"VerticalHorizontal_4.50000_-0.12339.png","A",29,938506,0.646,"arrowright","arrowright",0,"Incongruent",0.12339,"Incongruent - Mild","Hard"
"bsvxfugrwp","VerticalHorizontal",0.0581,-22.5,"VerticalHorizontal_-22.500_0.05810.png","A",30,940083,1.14,"arrowleft","arrowleft",0,"Congruent",0.0581,"Congruent - Mild","Hard"
"bsvxfugrwp","VerticalHorizontal",-0.0581,40.5,"VerticalHorizontal_40.5000_-0.0581.png","A",31,942258,0.775,"arrowright","arrowright",0,"Incongruent",0.0581,"Incongruent - Strong","Hard"
"bsvxfugrwp","VerticalHorizontal",0.3,-13.5,"VerticalHorizontal_-13.500_0.30000.png","A",32,943908,0.507,"arrowleft","arrowleft",0,"Congruent",0.3,"Congruent - Mild","Easy"
"bsvxfugrwp","VerticalHorizontal",0.20298,31.5,"VerticalHorizontal_31.5000_0.20298.png","A",33,945413,0.998,"arrowleft","arrowleft",0,"Incongruent",0.20298,"Incongruent - Strong","Easy"
"bsvxfugrwp","VerticalHorizontal",-0.12339,22.5,"VerticalHorizontal_22.5000_-0.12339.png","A",34,947069,0.651,"arrowright","arrowright",0,"Incongruent",0.12339,"Incongruent - Mild","Hard"
"bsvxfugrwp","VerticalHorizontal",0.0581,-31.5,"VerticalHorizontal_-31.500_0.05810.png","A",35,948425,1.668,"arrowleft","arrowleft",0,"Congruent",0.0581,"Congruent - Strong","Hard"
"bsvxfugrwp","VerticalHorizontal",0.12339,-4.5,"VerticalHorizontal_-4.5000_0.12339.png","A",36,950895,0.903,"arrowleft","arrowleft",0,"Congruent",0.12339,"Congruent - Mild","Hard"
"bsvxfugrwp","VerticalHorizontal",-0.0581,-22.5,"VerticalHorizontal_-22.500_-0.0581.png","A",37,952734,0.532,"arrowright","arrowright",0,"Congruent",0.0581,"Congruent - Mild","Hard"
"bsvxfugrwp","VerticalHorizontal",-0.12339,-22.5,"VerticalHorizontal_-22.500_-0.12339.png","A",38,954312,0.637,"arrowright","arrowright",0,"Congruent",0.12339,"Congruent - Mild","Hard"
"bsvxfugrwp","VerticalHorizontal",-0.20298,31.5,"VerticalHorizontal_31.5000_-0.20298.png","A",39,955613,0.736,"arrowright","arrowright",0,"Incongruent",0.20298,"Incongruent - Strong","Easy"
"bsvxfugrwp","VerticalHorizontal",0.20298,13.5,"VerticalHorizontal_13.5000_0.20298.png","A",40,957424,0.581,"arrowleft","arrowleft",0,"Incongruent",0.20298,"Incongruent - Mild","Easy"
"bsvxfugrwp","VerticalHorizontal",-0.12339,-13.5,"VerticalHorizontal_-13.500_-0.12339.png","A",41,958799,0.501,"arrowright","arrowright",0,"Congruent",0.12339,"Congruent - Mild","Hard"
"bsvxfugrwp","VerticalHorizontal",0.12339,-13.5,"VerticalHorizontal_-13.500_0.12339.png","A",42,960289,1.262,"arrowleft","arrowleft",0,"Congruent",0.12339,"Congruent - Mild","Hard"
"bsvxfugrwp","VerticalHorizontal",-0.12339,13.5,"VerticalHorizontal_13.5000_-0.12339.png","A",43,962343,0.548,"arrowright","arrowright",0,"Incongruent",0.12339,"Incongruent - Mild","Hard"
"bsvxfugrwp","VerticalHorizontal",-0.12339,40.5,"VerticalHorizontal_40.5000_-0.12339.png","A",44,963870,0.815,"arrowright","arrowright",0,"Incongruent",0.12339,"Incongruent - Strong","Hard"
"bsvxfugrwp","VerticalHorizontal",-0.0581,-31.5,"VerticalHorizontal_-31.500_-0.0581.png","A",45,965397,0.396,"arrowright","arrowright",0,"Congruent",0.0581,"Congruent - Strong","Hard"
"bsvxfugrwp","VerticalHorizontal",0.3,-31.5,"VerticalHorizontal_-31.500_0.30000.png","A",46,966696,0.723,"arrowleft","arrowleft",0,"Congruent",0.3,"Congruent - Strong","Easy"
"bsvxfugrwp","VerticalHorizontal",0.20298,-22.5,"VerticalHorizontal_-22.500_0.20298.png","A",47,968533,0.764,"arrowleft","arrowleft",0,"Congruent",0.20298,"Congruent - Mild","Easy"
"bsvxfugrwp","VerticalHorizontal",-0.20298,-13.5,"VerticalHorizontal_-13.500_-0.20298.png","A",48,970244,0.511,"arrowright","arrowright",0,"Congruent",0.20298,"Congruent - Mild","Easy"
"bsvxfugrwp","VerticalHorizontal",-0.3,13.5,"VerticalHorizontal_13.5000_-0.3000.png","A",49,971480,0.571,"arrowright","arrowright",0,"Incongruent",0.3,"Incongruent - Mild","Easy"
"bsvxfugrwp","VerticalHorizontal",-0.0581,-40.5,"VerticalHorizontal_-40.500_-0.0581.png","A",50,972891,0.661,"arrowright","arrowright",0,"Congruent",0.0581,"Congruent - Strong","Hard"
"bsvxfugrwp","VerticalHorizontal",-0.3,31.5,"VerticalHorizontal_31.5000_-0.3000.png","A",51,974249,0.28,"arrowright","arrowright",0,"Incongruent",0.3,"Incongruent - Strong","Easy"
"bsvxfugrwp","VerticalHorizontal",0.3,4.5,"VerticalHorizontal_4.50000_0.30000.png","A",52,975509,0.539,"arrowleft","arrowleft",0,"Incongruent",0.3,"Incongruent - Mild","Easy"
"bsvxfugrwp","VerticalHorizontal",-0.20298,4.5,"VerticalHorizontal_4.50000_-0.20298.png","A",53,977000,0.557,"arrowright","arrowright",0,"Incongruent",0.20298,"Incongruent - Mild","Easy"
"bsvxfugrwp","VerticalHorizontal",-0.0581,-4.5,"VerticalHorizontal_-4.5000_-0.0581.png","A",54,978447,1.192,"arrowright","arrowright",0,"Congruent",0.0581,"Congruent - Mild","Hard"
"bsvxfugrwp","VerticalHorizontal",0.20298,-40.5,"VerticalHorizontal_-40.500_0.20298.png","A",55,980609,0.577,"arrowleft","arrowleft",0,"Congruent",0.20298,"Congruent - Strong","Easy"
"bsvxfugrwp","VerticalHorizontal",-0.3,-4.5,"VerticalHorizontal_-4.5000_-0.3000.png","A",56,982004,0.703,"arrowright","arrowright",0,"Congruent",0.3,"Congruent - Mild","Easy"
"bsvxfugrwp","VerticalHorizontal",-0.20298,-22.5,"VerticalHorizontal_-22.500_-0.20298.png","A",57,983704,0.51,"arrowright","arrowright",0,"Congruent",0.20298,"Congruent - Mild","Easy"
"bsvxfugrwp","VerticalHorizontal",-0.3,4.5,"VerticalHorizontal_4.50000_-0.3000.png","A",58,985129,0.674,"arrowright","arrowright",0,"Incongruent",0.3,"Incongruent - Mild","Easy"
"bsvxfugrwp","VerticalHorizontal",0.12339,31.5,"VerticalHorizontal_31.5000_0.12339.png","A",59,986750,0.891,"arrowleft","arrowleft",0,"Incongruent",0.12339,"Incongruent - Strong","Hard"
"bsvxfugrwp","VerticalHorizontal",0.20298,4.5,"VerticalHorizontal_4.50000_0.20298.png","A",60,988725,0.661,"arrowleft","arrowleft",0,"Incongruent",0.20298,"Incongruent - Mild","Easy"
"bsvxfugrwp","VerticalHorizontal",-0.12339,-4.5,"VerticalHorizontal_-4.5000_-0.12339.png","A",61,990401,0.949,"arrowright","arrowright",0,"Congruent",0.12339,"Congruent - Mild","Hard"
"bsvxfugrwp","VerticalHorizontal",0.20298,22.5,"VerticalHorizontal_22.5000_0.20298.png","A",62,992373,0.724,"arrowleft","arrowleft",0,"Incongruent",0.20298,"Incongruent - Mild","Easy"
"bsvxfugrwp","VerticalHorizontal",0.20298,-4.5,"VerticalHorizontal_-4.5000_0.20298.png","A",63,993753,0.601,"arrowleft","arrowleft",0,"Congruent",0.20298,"Congruent - Mild","Easy"
"bsvxfugrwp","VerticalHorizontal",-0.3,-31.5,"VerticalHorizontal_-31.500_-0.3000.png","A",64,995171,0.464,"arrowright","arrowright",0,"Congruent",0.3,"Congruent - Strong","Easy"
"bsvxfugrwp","VerticalHorizontal",0.12339,13.5,"VerticalHorizontal_13.5000_0.12339.png","A",65,996456,0.746,"arrowleft","arrowleft",0,"Incongruent",0.12339,"Incongruent - Mild","Hard"
"bsvxfugrwp","VerticalHorizontal",0.3,-22.5,"VerticalHorizontal_-22.500_0.30000.png","A",66,998148,0.837,"arrowleft","arrowleft",0,"Congruent",0.3,"Congruent - Mild","Easy"
"bsvxfugrwp","VerticalHorizontal",0.20298,40.5,"VerticalHorizontal_40.5000_0.20298.png","A",67,999593,1.057,"arrowleft","arrowleft",0,"Incongruent",0.20298,"Incongruent - Strong","Easy"
"bsvxfugrwp","VerticalHorizontal",0.0581,-4.5,"VerticalHorizontal_-4.5000_0.05810.png","A",68,1001635,1.227,"arrowleft","arrowleft",0,"Congruent",0.0581,"Congruent - Mild","Hard"
"bsvxfugrwp","VerticalHorizontal",0.12339,-40.5,"VerticalHorizontal_-40.500_0.12339.png","A",69,1003942,0.605,"arrowleft","arrowleft",0,"Congruent",0.12339,"Congruent - Strong","Hard"
"bsvxfugrwp","VerticalHorizontal",0.0581,31.5,"VerticalHorizontal_31.5000_0.05810.png","A",70,1005405,1.852,"arrowright","arrowleft",1,"Incongruent",0.0581,"Incongruent - Strong","Hard"
"bsvxfugrwp","VerticalHorizontal",-0.12339,-31.5,"VerticalHorizontal_-31.500_-0.12339.png","A",71,1008258,0.473,"arrowright","arrowright",0,"Congruent",0.12339,"Congruent - Strong","Hard"
"bsvxfugrwp","VerticalHorizontal",-0.0581,-13.5,"VerticalHorizontal_-13.500_-0.0581.png","A",72,1009425,0.521,"arrowright","arrowright",0,"Congruent",0.0581,"Congruent - Mild","Hard"
"bsvxfugrwp","VerticalHorizontal",-0.3,-40.5,"VerticalHorizontal_-40.500_-0.3000.png","A",73,1010949,0.5,"arrowright","arrowright",0,"Congruent",0.3,"Congruent - Strong","Easy"
"bsvxfugrwp","VerticalHorizontal",-0.0581,22.5,"VerticalHorizontal_22.5000_-0.0581.png","A",74,1012534,0.758,"arrowright","arrowright",0,"Incongruent",0.0581,"Incongruent - Mild","Hard"
"bsvxfugrwp","VerticalHorizontal",0.20298,-31.5,"VerticalHorizontal_-31.500_0.20298.png","A",75,1013949,0.576,"arrowleft","arrowleft",0,"Congruent",0.20298,"Congruent - Strong","Easy"
"bsvxfugrwp","VerticalHorizontal",0.12339,22.5,"VerticalHorizontal_22.5000_0.12339.png","A",76,1015550,0.515,"arrowright","arrowleft",1,"Incongruent",0.12339,"Incongruent - Mild","Hard"
"bsvxfugrwp","VerticalHorizontal",0.0581,-13.5,"VerticalHorizontal_-13.500_0.05810.png","A",78,1025750,0.715,"arrowleft","arrowleft",0,"Congruent",0.0581,"Congruent - Mild","Hard"
"bsvxfugrwp","VerticalHorizontal",-0.20298,-4.5,"VerticalHorizontal_-4.5000_-0.20298.png","A",79,1027475,0.504,"arrowright","arrowright",0,"Congruent",0.20298,"Congruent - Mild","Easy"
"bsvxfugrwp","VerticalHorizontal",0.0581,-40.5,"VerticalHorizontal_-40.500_0.05810.png","A",80,1028936,0.676,"arrowleft","arrowleft",0,"Congruent",0.0581,"Congruent - Strong","Hard"
"bsvxfugrwp","MullerLyer",0.37364,6,"MullerLyer_6.00000_0.37364.png","B",2,1282092,0.603,"arrowup","arrowup",0,"Incongruent",0.37364,"Incongruent - Mild","Easy"
"bsvxfugrwp","MullerLyer",0.37364,30,"MullerLyer_30.0000_0.37364.png","B",4,1291571,0.95,"arrowup","arrowup",0,"Incongruent",0.37364,"Incongruent - Strong","Easy"
"bsvxfugrwp","MullerLyer",-0.24183,12,"MullerLyer_12.0000_-0.24183.png","B",5,1293309,0.984,"arrowdown","arrowdown",0,"Incongruent",0.24183,"Incongruent - Mild","Easy"
"bsvxfugrwp","MullerLyer",0.24183,6,"MullerLyer_6.00000_0.24183.png","B",6,1294979,0.687,"arrowup","arrowup",0,"Incongruent",0.24183,"Incongruent - Mild","Easy"
"bsvxfugrwp","MullerLyer",0.24183,-18,"MullerLyer_-18.000_0.24183.png","B",7,1296375,0.812,"arrowup","arrowup",0,"Congruent",0.24183,"Congruent - Strong","Easy"
"bsvxfugrwp","MullerLyer",0.045,-24,"MullerLyer_-24.000_0.04500.png","B",8,1297926,0.541,"arrowup","arrowup",0,"Congruent",0.045,"Congruent - Strong","Hard"
"bsvxfugrwp","MullerLyer",0.045,6,"MullerLyer_6.00000_0.04500.png","B",9,1299396,0.637,"arrowdown","arrowup",1,"Incongruent",0.045,"Incongruent - Mild","Hard"
"bsvxfugrwp","MullerLyer",-0.24183,-24,"MullerLyer_-24.000_-0.24183.png","B",10,1300884,0.536,"arrowdown","arrowdown",0,"Congruent",0.24183,"Congruent - Strong","Easy"
"bsvxfugrwp","MullerLyer",0.37364,-12,"MullerLyer_-12.000_0.37364.png","B",11,1302239,0.571,"arrowup","arrowup",0,"Congruent",0.37364,"Congruent - Mild","Easy"
"bsvxfugrwp","MullerLyer",0.1337,12,"MullerLyer_12.0000_0.13370.png","B",12,1303668,0.778,"arrowdown","arrowup",1,"Incongruent",0.1337,"Incongruent - Mild","Hard"
"bsvxfugrwp","MullerLyer",0.045,-30,"MullerLyer_-30.000_0.04500.png","B",13,1305373,0.726,"arrowup","arrowup",0,"Congruent",0.045,"Congruent - Strong","Hard"
"bsvxfugrwp","MullerLyer",-0.37364,-12,"MullerLyer_-12.000_-0.37364.png","B",14,1306867,0.544,"arrowdown","arrowdown",0,"Congruent",0.37364,"Congruent - Mild","Easy"
"bsvxfugrwp","MullerLyer",-0.24183,18,"MullerLyer_18.0000_-0.24183.png","B",15,1308077,0.744,"arrowup","arrowdown",1,"Incongruent",0.24183,"Incongruent - Strong","Easy"
"bsvxfugrwp","MullerLyer",-0.1337,-6,"MullerLyer_-6.0000_-0.1337.png","B",16,1309806,0.588,"arrowdown","arrowdown",0,"Congruent",0.1337,"Congruent - Mild","Hard"
"bsvxfugrwp","MullerLyer",-0.045,-12,"MullerLyer_-12.000_-0.0450.png","B",17,1311070,0.567,"arrowdown","arrowdown",0,"Congruent",0.045,"Congruent - Mild","Hard"
"bsvxfugrwp","MullerLyer",0.1337,30,"MullerLyer_30.0000_0.13370.png","B",18,1312270,0.531,"arrowdown","arrowup",1,"Incongruent",0.1337,"Incongruent - Strong","Hard"
"bsvxfugrwp","MullerLyer",0.1337,6,"MullerLyer_6.00000_0.13370.png","B",19,1313749,1.468,"arrowup","arrowup",0,"Incongruent",0.1337,"Incongruent - Mild","Hard"
"bsvxfugrwp","MullerLyer",-0.24183,-12,"MullerLyer_-12.000_-0.24183.png","B",20,1315909,0.603,"arrowdown","arrowdown",0,"Congruent",0.24183,"Congruent - Mild","Easy"
"bsvxfugrwp","MullerLyer",0.37364,-30,"MullerLyer_-30.000_0.37364.png","B",21,1317571,0.531,"arrowup","arrowup",0,"Congruent",0.37364,"Congruent - Strong","Easy"
"bsvxfugrwp","MullerLyer",0.37364,18,"MullerLyer_18.0000_0.37364.png","B",22,1319122,1.253,"arrowup","arrowup",0,"Incongruent",0.37364,"Incongruent - Strong","Easy"
"bsvxfugrwp","MullerLyer",0.045,30,"MullerLyer_30.0000_0.04500.png","B",23,1321315,0.594,"arrowdown","arrowup",1,"Incongruent",0.045,"Incongruent - Strong","Hard"
"bsvxfugrwp","MullerLyer",0.24183,30,"MullerLyer_30.0000_0.24183.png","B",24,1322581,1.308,"arrowdown","arrowup",1,"Incongruent",0.24183,"Incongruent - Strong","Easy"
"bsvxfugrwp","MullerLyer",-0.24183,6,"MullerLyer_6.00000_-0.24183.png","B",25,1324751,0.792,"arrowdown","arrowdown",0,"Incongruent",0.24183,"Incongruent - Mild","Easy"
"bsvxfugrwp","MullerLyer",-0.37364,12,"MullerLyer_12.0000_-0.37364.png","B",26,1326590,0.506,"arrowdown","arrowdown",0,"Incongruent",0.37364,"Incongruent - Mild","Easy"
"bsvxfugrwp","MullerLyer",-0.1337,30,"MullerLyer_30.0000_-0.1337.png","B",27,1327889,1.006,"arrowup","arrowdown",1,"Incongruent",0.1337,"Incongruent - Strong","Hard"
"bsvxfugrwp","MullerLyer",-0.1337,-30,"MullerLyer_-30.000_-0.1337.png","B",28,1329747,0.847,"arrowdown","arrowdown",0,"Congruent",0.1337,"Congruent - Strong","Hard"
"bsvxfugrwp","MullerLyer",0.045,12,"MullerLyer_12.0000_0.04500.png","B",30,1334340,1.576,"arrowdown","arrowup",1,"Incongruent",0.045,"Incongruent - Mild","Hard"
"bsvxfugrwp","MullerLyer",0.1337,-12,"MullerLyer_-12.000_0.13370.png","B",31,1336827,0.913,"arrowup","arrowup",0,"Congruent",0.1337,"Congruent - Mild","Hard"
"bsvxfugrwp","MullerLyer",-0.045,-24,"MullerLyer_-24.000_-0.0450.png","B",32,1338794,0.762,"arrowdown","arrowdown",0,"Congruent",0.045,"Congruent - Strong","Hard"
"bsvxfugrwp","MullerLyer",-0.045,-6,"MullerLyer_-6.0000_-0.0450.png","B",33,1340325,0.671,"arrowdown","arrowdown",0,"Congruent",0.045,"Congruent - Mild","Hard"
"bsvxfugrwp","MullerLyer",0.37364,-6,"MullerLyer_-6.0000_0.37364.png","B",34,1341701,0.484,"arrowup","arrowup",0,"Congruent",0.37364,"Congruent - Mild","Easy"
"bsvxfugrwp","MullerLyer",-0.24183,-30,"MullerLyer_-30.000_-0.24183.png","B",35,1342982,0.756,"arrowdown","arrowdown",0,"Congruent",0.24183,"Congruent - Strong","Easy"
"bsvxfugrwp","MullerLyer",0.24183,12,"MullerLyer_12.0000_0.24183.png","B",36,1344567,0.89,"arrowup","arrowup",0,"Incongruent",0.24183,"Incongruent - Mild","Easy"
"bsvxfugrwp","MullerLyer",0.37364,-24,"MullerLyer_-24.000_0.37364.png","B",37,1346138,0.614,"arrowup","arrowup",0,"Congruent",0.37364,"Congruent - Strong","Easy"
"bsvxfugrwp","MullerLyer",-0.37364,-6,"MullerLyer_-6.0000_-0.37364.png","B",38,1347573,0.72,"arrowdown","arrowdown",0,"Congruent",0.37364,"Congruent - Mild","Easy"
"bsvxfugrwp","MullerLyer",-0.37364,6,"MullerLyer_6.00000_-0.37364.png","B",39,1349363,0.906,"arrowdown","arrowdown",0,"Incongruent",0.37364,"Incongruent - Mild","Easy"
"bsvxfugrwp","MullerLyer",0.045,-6,"MullerLyer_-6.0000_0.04500.png","B",40,1351077,0.651,"arrowup","arrowup",0,"Congruent",0.045,"Congruent - Mild","Hard"
"bsvxfugrwp","MullerLyer",0.24183,-30,"MullerLyer_-30.000_0.24183.png","B",41,1352823,0.433,"arrowup","arrowup",0,"Congruent",0.24183,"Congruent - Strong","Easy"
"bsvxfugrwp","MullerLyer",-0.045,6,"MullerLyer_6.00000_-0.0450.png","B",43,1357706,1.061,"arrowup","arrowdown",1,"Incongruent",0.045,"Incongruent - Mild","Hard"
"bsvxfugrwp","MullerLyer",-0.24183,24,"MullerLyer_24.0000_-0.24183.png","B",44,1359845,1.271,"arrowdown","arrowdown",0,"Incongruent",0.24183,"Incongruent - Strong","Easy"
"bsvxfugrwp","MullerLyer",-0.24183,30,"MullerLyer_30.0000_-0.24183.png","B",46,1364783,1.551,"arrowdown","arrowdown",0,"Incongruent",0.24183,"Incongruent - Strong","Easy"
"bsvxfugrwp","MullerLyer",-0.37364,18,"MullerLyer_18.0000_-0.37364.png","B",47,1367213,1.183,"arrowdown","arrowdown",0,"Incongruent",0.37364,"Incongruent - Strong","Easy"
"bsvxfugrwp","MullerLyer",0.045,-18,"MullerLyer_-18.000_0.04500.png","B",48,1369135,0.521,"arrowup","arrowup",0,"Congruent",0.045,"Congruent - Strong","Hard"
"bsvxfugrwp","MullerLyer",-0.1337,-24,"MullerLyer_-24.000_-0.1337.png","B",49,1370309,0.684,"arrowdown","arrowdown",0,"Congruent",0.1337,"Congruent - Strong","Hard"
"bsvxfugrwp","MullerLyer",-0.1337,24,"MullerLyer_24.0000_-0.1337.png","B",50,1371768,1.436,"arrowup","arrowdown",1,"Incongruent",0.1337,"Incongruent - Strong","Hard"
"bsvxfugrwp","MullerLyer",-0.045,30,"MullerLyer_30.0000_-0.0450.png","B",52,1381116,0.542,"arrowup","arrowdown",1,"Incongruent",0.045,"Incongruent - Strong","Hard"
"bsvxfugrwp","MullerLyer",0.1337,-30,"MullerLyer_-30.000_0.13370.png","B",53,1382629,0.476,"arrowup","arrowup",0,"Congruent",0.1337,"Congruent - Strong","Hard"
"bsvxfugrwp","MullerLyer",-0.045,-30,"MullerLyer_-30.000_-0.0450.png","B",54,1384106,0.633,"arrowdown","arrowdown",0,"Congruent",0.045,"Congruent - Strong","Hard"
"bsvxfugrwp","MullerLyer",0.24183,-6,"MullerLyer_-6.0000_0.24183.png","B",55,1385561,0.525,"arrowup","arrowup",0,"Congruent",0.24183,"Congruent - Mild","Easy"
"bsvxfugrwp","MullerLyer",0.1337,18,"MullerLyer_18.0000_0.13370.png","B",56,1386980,0.585,"arrowdown","arrowup",1,"Incongruent",0.1337,"Incongruent - Strong","Hard"
"bsvxfugrwp","MullerLyer",0.045,18,"MullerLyer_18.0000_0.04500.png","B",57,1388497,1.31,"arrowdown","arrowup",1,"Incongruent",0.045,"Incongruent - Strong","Hard"
"bsvxfugrwp","MullerLyer",0.1337,-18,"MullerLyer_-18.000_0.13370.png","B",58,1390623,0.978,"arrowup","arrowup",0,"Congruent",0.1337,"Congruent - Strong","Hard"
"bsvxfugrwp","MullerLyer",-0.1337,12,"MullerLyer_12.0000_-0.1337.png","B",59,1392451,0.575,"arrowup","arrowdown",1,"Incongruent",0.1337,"Incongruent - Mild","Hard"
"bsvxfugrwp","MullerLyer",0.1337,24,"MullerLyer_24.0000_0.13370.png","B",60,1393690,0.678,"arrowdown","arrowup",1,"Incongruent",0.1337,"Incongruent - Strong","Hard"
"bsvxfugrwp","MullerLyer",0.24183,-12,"MullerLyer_-12.000_0.24183.png","B",61,1395000,0.899,"arrowup","arrowup",0,"Congruent",0.24183,"Congruent - Mild","Easy"
"bsvxfugrwp","MullerLyer",0.045,-12,"MullerLyer_-12.000_0.04500.png","B",62,1396969,0.504,"arrowup","arrowup",0,"Congruent",0.045,"Congruent - Mild","Hard"
"bsvxfugrwp","MullerLyer",0.37364,-18,"MullerLyer_-18.000_0.37364.png","B",63,1398425,0.452,"arrowup","arrowup",0,"Congruent",0.37364,"Congruent - Strong","Easy"
"bsvxfugrwp","MullerLyer",0.1337,-24,"MullerLyer_-24.000_0.13370.png","B",64,1399908,0.402,"arrowup","arrowup",0,"Congruent",0.1337,"Congruent - Strong","Hard"
"bsvxfugrwp","MullerLyer",-0.24183,-6,"MullerLyer_-6.0000_-0.24183.png","B",65,1401200,0.615,"arrowdown","arrowdown",0,"Congruent",0.24183,"Congruent - Mild","Easy"
"bsvxfugrwp","MullerLyer",-0.045,24,"MullerLyer_24.0000_-0.0450.png","B",67,1405396,1.318,"arrowup","arrowdown",1,"Incongruent",0.045,"Incongruent - Strong","Hard"
"bsvxfugrwp","MullerLyer",0.045,24,"MullerLyer_24.0000_0.04500.png","B",68,1407824,0.706,"arrowdown","arrowup",1,"Incongruent",0.045,"Incongruent - Strong","Hard"
"bsvxfugrwp","MullerLyer",-0.37364,24,"MullerLyer_24.0000_-0.37364.png","B",69,1409436,1.476,"arrowdown","arrowdown",0,"Incongruent",0.37364,"Incongruent - Strong","Easy"
"bsvxfugrwp","MullerLyer",0.37364,12,"MullerLyer_12.0000_0.37364.png","B",70,1411573,1.185,"arrowup","arrowup",0,"Incongruent",0.37364,"Incongruent - Mild","Easy"
"bsvxfugrwp","MullerLyer",0.37364,24,"MullerLyer_24.0000_0.37364.png","B",71,1413838,0.683,"arrowup","arrowup",0,"Incongruent",0.37364,"Incongruent - Strong","Easy"
"bsvxfugrwp","MullerLyer",0.1337,-6,"MullerLyer_-6.0000_0.13370.png","B",72,1415467,0.571,"arrowup","arrowup",0,"Congruent",0.1337,"Congruent - Mild","Hard"
"bsvxfugrwp","MullerLyer",-0.1337,-18,"MullerLyer_-18.000_-0.1337.png","B",73,1416920,0.717,"arrowdown","arrowdown",0,"Congruent",0.1337,"Congruent - Strong","Hard"
"bsvxfugrwp","MullerLyer",-0.1337,-12,"MullerLyer_-12.000_-0.1337.png","B",74,1418716,0.947,"arrowdown","arrowdown",0,"Congruent",0.1337,"Congruent - Mild","Hard"
"bsvxfugrwp","MullerLyer",-0.045,-18,"MullerLyer_-18.000_-0.0450.png","B",75,1420310,0.519,"arrowdown","arrowdown",0,"Congruent",0.045,"Congruent - Strong","Hard"
"bsvxfugrwp","MullerLyer",-0.37364,-24,"MullerLyer_-24.000_-0.37364.png","B",76,1421756,0.57,"arrowdown","arrowdown",0,"Congruent",0.37364,"Congruent - Strong","Easy"
"bsvxfugrwp","MullerLyer",-0.37364,30,"MullerLyer_30.0000_-0.37364.png","B",77,1423006,1.566,"arrowdown","arrowdown",0,"Incongruent",0.37364,"Incongruent - Strong","Easy"
"bsvxfugrwp","MullerLyer",-0.24183,-18,"MullerLyer_-18.000_-0.24183.png","B",78,1425184,0.434,"arrowdown","arrowdown",0,"Congruent",0.24183,"Congruent - Strong","Easy"
"bsvxfugrwp","MullerLyer",-0.37364,-18,"MullerLyer_-18.000_-0.37364.png","B",79,1426529,0.517,"arrowdown","arrowdown",0,"Congruent",0.37364,"Congruent - Strong","Easy"
"bsvxfugrwp","MullerLyer",0.24183,-24,"MullerLyer_-24.000_0.24183.png","B",80,1427684,0.827,"arrowup","arrowup",0,"Congruent",0.24183,"Congruent - Strong","Easy"
"bsvxfugrwp","Ebbinghaus",0.41515,0.6,"Ebbinghaus_0.60000_0.41515.png","B",1,1482725,1.095,"arrowleft","arrowleft",0,"Incongruent",0.41515,"Incongruent - Mild","Easy"
"bsvxfugrwp","Ebbinghaus",0.2687,1.2,"Ebbinghaus_1.20000_0.26870.png","B",2,1484641,0.786,"arrowright","arrowleft",1,"Incongruent",0.2687,"Incongruent - Strong","Easy"
"bsvxfugrwp","Ebbinghaus",-0.14856,0.9,"Ebbinghaus_0.90000_-0.14856.png","B",3,1486107,1.08,"arrowleft","arrowright",1,"Incongruent",0.14856,"Incongruent - Strong","Hard"
"bsvxfugrwp","Ebbinghaus",0.14856,-1.5,"Ebbinghaus_-1.5000_0.14856.png","B",4,1487823,0.969,"arrowleft","arrowleft",0,"Congruent",0.14856,"Congruent - Strong","Hard"
"bsvxfugrwp","Ebbinghaus",-0.14856,-0.6,"Ebbinghaus_-0.6000_-0.14856.png","B",5,1489890,0.76,"arrowright","arrowright",0,"Congruent",0.14856,"Congruent - Mild","Hard"
"bsvxfugrwp","Ebbinghaus",-0.41515,0.3,"Ebbinghaus_0.30000_-0.41515.png","B",6,1491457,0.871,"arrowright","arrowright",0,"Incongruent",0.41515,"Incongruent - Mild","Easy"
"bsvxfugrwp","Ebbinghaus",0.05,-0.6,"Ebbinghaus_-0.6000_0.05000.png","B",7,1493308,0.888,"arrowleft","arrowleft",0,"Congruent",0.05,"Congruent - Mild","Hard"
"bsvxfugrwp","Ebbinghaus",0.41515,1.5,"Ebbinghaus_1.50000_0.41515.png","B",8,1495023,1.779,"arrowright","arrowleft",1,"Incongruent",0.41515,"Incongruent - Strong","Easy"
"bsvxfugrwp","Ebbinghaus",-0.41515,1.2,"Ebbinghaus_1.20000_-0.41515.png","B",9,1497726,1.299,"arrowright","arrowright",0,"Incongruent",0.41515,"Incongruent - Strong","Easy"
"bsvxfugrwp","Ebbinghaus",-0.2687,-1.5,"Ebbinghaus_-1.5000_-0.2687.png","B",10,1500059,0.688,"arrowright","arrowright",0,"Congruent",0.2687,"Congruent - Strong","Easy"
"bsvxfugrwp","Ebbinghaus",0.05,0.9,"Ebbinghaus_0.90000_0.05000.png","B",11,1501855,0.684,"arrowright","arrowleft",1,"Incongruent",0.05,"Incongruent - Strong","Hard"
"bsvxfugrwp","Ebbinghaus",-0.41515,-0.3,"Ebbinghaus_-0.3000_-0.41515.png","B",12,1503249,0.583,"arrowright","arrowright",0,"Congruent",0.41515,"Congruent - Mild","Easy"
"bsvxfugrwp","Ebbinghaus",-0.05,1.2,"Ebbinghaus_1.20000_-0.0500.png","B",13,1504726,0.713,"arrowleft","arrowright",1,"Incongruent",0.05,"Incongruent - Strong","Hard"
"bsvxfugrwp","Ebbinghaus",0.14856,-0.3,"Ebbinghaus_-0.3000_0.14856.png","B",14,1506105,0.786,"arrowleft","arrowleft",0,"Congruent",0.14856,"Congruent - Mild","Hard"
"bsvxfugrwp","Ebbinghaus",-0.41515,-1.5,"Ebbinghaus_-1.5000_-0.41515.png","B",15,1507861,0.522,"arrowright","arrowright",0,"Congruent",0.41515,"Congruent - Strong","Easy"
"bsvxfugrwp","Ebbinghaus",-0.14856,-1.5,"Ebbinghaus_-1.5000_-0.14856.png","B",17,1512069,0.898,"arrowright","arrowright",0,"Congruent",0.14856,"Congruent - Strong","Hard"
"bsvxfugrwp","Ebbinghaus",0.14856,0.6,"Ebbinghaus_0.60000_0.14856.png","B",18,1513889,1.699,"arrowright","arrowleft",1,"Incongruent",0.14856,"Incongruent - Mild","Hard"
"bsvxfugrwp","Ebbinghaus",-0.41515,0.9,"Ebbinghaus_0.90000_-0.41515.png","B",20,1522808,0.591,"arrowright","arrowright",0,"Incongruent",0.41515,"Incongruent - Strong","Easy"
"bsvxfugrwp","Ebbinghaus",0.05,1.5,"Ebbinghaus_1.50000_0.05000.png","B",21,1524300,0.532,"arrowright","arrowleft",1,"Incongruent",0.05,"Incongruent - Strong","Hard"
"bsvxfugrwp","Ebbinghaus",-0.05,-1.5,"Ebbinghaus_-1.5000_-0.0500.png","B",22,1525762,0.652,"arrowright","arrowright",0,"Congruent",0.05,"Congruent - Strong","Hard"
"bsvxfugrwp","Ebbinghaus",0.41515,-0.9,"Ebbinghaus_-0.9000_0.41515.png","B",23,1527032,0.798,"arrowleft","arrowleft",0,"Congruent",0.41515,"Congruent - Strong","Easy"
"bsvxfugrwp","Ebbinghaus",0.2687,0.6,"Ebbinghaus_0.60000_0.26870.png","B",24,1528462,1.86,"arrowright","arrowleft",1,"Incongruent",0.2687,"Incongruent - Mild","Easy"
"bsvxfugrwp","Ebbinghaus",-0.2687,1.5,"Ebbinghaus_1.50000_-0.2687.png","B",25,1531276,1.059,"arrowleft","arrowright",1,"Incongruent",0.2687,"Incongruent - Strong","Easy"
"bsvxfugrwp","Ebbinghaus",-0.2687,0.3,"Ebbinghaus_0.30000_-0.2687.png","B",26,1533226,1.058,"arrowright","arrowright",0,"Incongruent",0.2687,"Incongruent - Mild","Easy"
"bsvxfugrwp","Ebbinghaus",0.14856,1.5,"Ebbinghaus_1.50000_0.14856.png","B",27,1535362,0.694,"arrowright","arrowleft",1,"Incongruent",0.14856,"Incongruent - Strong","Hard"
"bsvxfugrwp","Ebbinghaus",-0.05,-0.9,"Ebbinghaus_-0.9000_-0.0500.png","B",28,1536868,0.631,"arrowright","arrowright",0,"Congruent",0.05,"Congruent - Strong","Hard"
"bsvxfugrwp","Ebbinghaus",-0.14856,-1.2,"Ebbinghaus_-1.2000_-0.14856.png","B",29,1538270,0.628,"arrowright","arrowright",0,"Congruent",0.14856,"Congruent - Strong","Hard"
"bsvxfugrwp","Ebbinghaus",0.14856,-1.2,"Ebbinghaus_-1.2000_0.14856.png","B",30,1539588,1.343,"arrowleft","arrowleft",0,"Congruent",0.14856,"Congruent - Strong","Hard"
"bsvxfugrwp","Ebbinghaus",-0.2687,1.2,"Ebbinghaus_1.20000_-0.2687.png","B",31,1541636,1.515,"arrowleft","arrowright",1,"Incongruent",0.2687,"Incongruent - Strong","Easy"
"bsvxfugrwp","Ebbinghaus",0.2687,-0.6,"Ebbinghaus_-0.6000_0.26870.png","B",32,1543932,0.787,"arrowleft","arrowleft",0,"Congruent",0.2687,"Congruent - Mild","Easy"
"bsvxfugrwp","Ebbinghaus",0.14856,0.9,"Ebbinghaus_0.90000_0.14856.png","B",33,1545719,0.855,"arrowright","arrowleft",1,"Incongruent",0.14856,"Incongruent - Strong","Hard"
"bsvxfugrwp","Ebbinghaus",-0.05,1.5,"Ebbinghaus_1.50000_-0.0500.png","B",34,1547491,0.911,"arrowleft","arrowright",1,"Incongruent",0.05,"Incongruent - Strong","Hard"
"bsvxfugrwp","Ebbinghaus",0.05,-1.5,"Ebbinghaus_-1.5000_0.05000.png","B",36,1552198,0.731,"arrowleft","arrowleft",0,"Congruent",0.05,"Congruent - Strong","Hard"
"bsvxfugrwp","Ebbinghaus",0.14856,1.2,"Ebbinghaus_1.20000_0.14856.png","B",37,1553972,0.775,"arrowright","arrowleft",1,"Incongruent",0.14856,"Incongruent - Strong","Hard"
"bsvxfugrwp","Ebbinghaus",-0.2687,-0.9,"Ebbinghaus_-0.9000_-0.2687.png","B",38,1555837,0.594,"arrowright","arrowright",0,"Congruent",0.2687,"Congruent - Strong","Easy"
"bsvxfugrwp","Ebbinghaus",-0.14856,0.3,"Ebbinghaus_0.30000_-0.14856.png","B",39,1557091,1.344,"arrowright","arrowright",0,"Incongruent",0.14856,"Incongruent - Mild","Hard"
"bsvxfugrwp","Ebbinghaus",0.41515,0.9,"Ebbinghaus_0.90000_0.41515.png","B",40,1559277,1.313,"arrowright","arrowleft",1,"Incongruent",0.41515,"Incongruent - Strong","Easy"
"bsvxfugrwp","Ebbinghaus",0.14856,-0.6,"Ebbinghaus_-0.6000_0.14856.png","B",41,1561434,1.091,"arrowleft","arrowleft",0,"Congruent",0.14856,"Congruent - Mild","Hard"
"bsvxfugrwp","Ebbinghaus",0.41515,1.2,"Ebbinghaus_1.20000_0.41515.png","B",42,1563471,0.884,"arrowright","arrowleft",1,"Incongruent",0.41515,"Incongruent - Strong","Easy"
"bsvxfugrwp","Ebbinghaus",0.41515,0.3,"Ebbinghaus_0.30000_0.41515.png","B",43,1565191,0.888,"arrowleft","arrowleft",0,"Incongruent",0.41515,"Incongruent - Mild","Easy"
"bsvxfugrwp","Ebbinghaus",-0.41515,1.5,"Ebbinghaus_1.50000_-0.41515.png","B",44,1567019,1.429,"arrowleft","arrowright",1,"Incongruent",0.41515,"Incongruent - Strong","Easy"
"bsvxfugrwp","Ebbinghaus",-0.41515,-1.2,"Ebbinghaus_-1.2000_-0.41515.png","B",45,1569553,0.682,"arrowright","arrowright",0,"Congruent",0.41515,"Congruent - Strong","Easy"
"bsvxfugrwp","Ebbinghaus",0.2687,-0.3,"Ebbinghaus_-0.3000_0.26870.png","B",46,1571211,0.907,"arrowleft","arrowleft",0,"Congruent",0.2687,"Congruent - Mild","Easy"
"bsvxfugrwp","Ebbinghaus",-0.05,0.6,"Ebbinghaus_0.60000_-0.0500.png","B",47,1573109,1.277,"arrowleft","arrowright",1,"Incongruent",0.05,"Incongruent - Mild","Hard"
"bsvxfugrwp","Ebbinghaus",-0.41515,-0.6,"Ebbinghaus_-0.6000_-0.41515.png","B",48,1575365,0.787,"arrowright","arrowright",0,"Congruent",0.41515,"Congruent - Mild","Easy"
"bsvxfugrwp","Ebbinghaus",0.41515,-1.2,"Ebbinghaus_-1.2000_0.41515.png","B",49,1576810,0.749,"arrowleft","arrowleft",0,"Congruent",0.41515,"Congruent - Strong","Easy"
"bsvxfugrwp","Ebbinghaus",0.2687,1.5,"Ebbinghaus_1.50000_0.26870.png","B",50,1578353,0.776,"arrowright","arrowleft",1,"Incongruent",0.2687,"Incongruent - Strong","Easy"
"bsvxfugrwp","Ebbinghaus",0.41515,-0.6,"Ebbinghaus_-0.6000_0.41515.png","B",51,1580004,0.835,"arrowleft","arrowleft",0,"Congruent",0.41515,"Congruent - Mild","Easy"
"bsvxfugrwp","Ebbinghaus",0.05,-1.2,"Ebbinghaus_-1.2000_0.05000.png","B",52,1581720,1.367,"arrowleft","arrowleft",0,"Congruent",0.05,"Congruent - Strong","Hard"
"bsvxfugrwp","Ebbinghaus",0.05,-0.3,"Ebbinghaus_-0.3000_0.05000.png","B",53,1583726,1.159,"arrowleft","arrowleft",0,"Congruent",0.05,"Congruent - Mild","Hard"
"bsvxfugrwp","Ebbinghaus",-0.2687,0.6,"Ebbinghaus_0.60000_-0.2687.png","B",54,1585731,1.644,"arrowleft","arrowright",1,"Incongruent",0.2687,"Incongruent - Mild","Easy"
"bsvxfugrwp","Ebbinghaus",-0.14856,0.6,"Ebbinghaus_0.60000_-0.14856.png","B",55,1588442,0.763,"arrowleft","arrowright",1,"Incongruent",0.14856,"Incongruent - Mild","Hard"
"bsvxfugrwp","Ebbinghaus",-0.05,-0.6,"Ebbinghaus_-0.6000_-0.0500.png","B",56,1590070,1.309,"arrowright","arrowright",0,"Congruent",0.05,"Congruent - Mild","Hard"
"bsvxfugrwp","Ebbinghaus",-0.05,0.3,"Ebbinghaus_0.30000_-0.0500.png","B",57,1592239,1.211,"arrowleft","arrowright",1,"Incongruent",0.05,"Incongruent - Mild","Hard"
"bsvxfugrwp","Ebbinghaus",0.41515,-0.3,"Ebbinghaus_-0.3000_0.41515.png","B",58,1594313,0.871,"arrowleft","arrowleft",0,"Congruent",0.41515,"Congruent - Mild","Easy"
"bsvxfugrwp","Ebbinghaus",-0.14856,1.5,"Ebbinghaus_1.50000_-0.14856.png","B",59,1596215,0.888,"arrowleft","arrowright",1,"Incongruent",0.14856,"Incongruent - Strong","Hard"
"bsvxfugrwp","Ebbinghaus",-0.2687,0.9,"Ebbinghaus_0.90000_-0.2687.png","B",60,1597823,0.697,"arrowleft","arrowright",1,"Incongruent",0.2687,"Incongruent - Strong","Easy"
"bsvxfugrwp","Ebbinghaus",-0.41515,0.6,"Ebbinghaus_0.60000_-0.41515.png","B",61,1599560,1.298,"arrowright","arrowright",0,"Incongruent",0.41515,"Incongruent - Mild","Easy"
"bsvxfugrwp","Ebbinghaus",-0.05,-1.2,"Ebbinghaus_-1.2000_-0.0500.png","B",62,1601652,0.523,"arrowright","arrowright",0,"Congruent",0.05,"Congruent - Strong","Hard"
"bsvxfugrwp","Ebbinghaus",-0.14856,-0.9,"Ebbinghaus_-0.9000_-0.14856.png","B",63,1602918,0.653,"arrowright","arrowright",0,"Congruent",0.14856,"Congruent - Strong","Hard"
"bsvxfugrwp","Ebbinghaus",-0.14856,-0.3,"Ebbinghaus_-0.3000_-0.14856.png","B",64,1604672,0.807,"arrowright","arrowright",0,"Congruent",0.14856,"Congruent - Mild","Hard"
"bsvxfugrwp","Ebbinghaus",0.2687,-1.2,"Ebbinghaus_-1.2000_0.26870.png","B",65,1606576,0.79,"arrowleft","arrowleft",0,"Congruent",0.2687,"Congruent - Strong","Easy"
"bsvxfugrwp","Ebbinghaus",-0.05,-0.3,"Ebbinghaus_-0.3000_-0.0500.png","B",66,1608010,0.671,"arrowright","arrowright",0,"Congruent",0.05,"Congruent - Mild","Hard"
"bsvxfugrwp","Ebbinghaus",0.2687,-1.5,"Ebbinghaus_-1.5000_0.26870.png","B",67,1609323,0.778,"arrowleft","arrowleft",0,"Congruent",0.2687,"Congruent - Strong","Easy"
"bsvxfugrwp","Ebbinghaus",0.05,1.2,"Ebbinghaus_1.20000_0.05000.png","B",68,1610876,0.693,"arrowright","arrowleft",1,"Incongruent",0.05,"Incongruent - Strong","Hard"
"bsvxfugrwp","Ebbinghaus",0.05,0.6,"Ebbinghaus_0.60000_0.05000.png","B",69,1612585,0.556,"arrowright","arrowleft",1,"Incongruent",0.05,"Incongruent - Mild","Hard"
"bsvxfugrwp","Ebbinghaus",0.2687,0.9,"Ebbinghaus_0.90000_0.26870.png","B",70,1613934,0.732,"arrowright","arrowleft",1,"Incongruent",0.2687,"Incongruent - Strong","Easy"
"bsvxfugrwp","Ebbinghaus",0.2687,0.3,"Ebbinghaus_0.30000_0.26870.png","B",71,1615375,1.452,"arrowright","arrowleft",1,"Incongruent",0.2687,"Incongruent - Mild","Easy"
"bsvxfugrwp","Ebbinghaus",-0.2687,-1.2,"Ebbinghaus_-1.2000_-0.2687.png","B",72,1617617,0.528,"arrowright","arrowright",0,"Congruent",0.2687,"Congruent - Strong","Easy"
"bsvxfugrwp","Ebbinghaus",0.05,-0.9,"Ebbinghaus_-0.9000_0.05000.png","B",73,1618831,0.785,"arrowleft","arrowleft",0,"Congruent",0.05,"Congruent - Strong","Hard"
"bsvxfugrwp","Ebbinghaus",-0.41515,-0.9,"Ebbinghaus_-0.9000_-0.41515.png","B",74,1620371,1.354,"arrowright","arrowright",0,"Congruent",0.41515,"Congruent - Strong","Easy"
"bsvxfugrwp","Ebbinghaus",-0.14856,1.2,"Ebbinghaus_1.20000_-0.14856.png","B",75,1622749,0.814,"arrowleft","arrowright",1,"Incongruent",0.14856,"Incongruent - Strong","Hard"
"bsvxfugrwp","Ebbinghaus",-0.2687,-0.3,"Ebbinghaus_-0.3000_-0.2687.png","B",76,1624354,0.873,"arrowright","arrowright",0,"Congruent",0.2687,"Congruent - Mild","Easy"
"bsvxfugrwp","Ebbinghaus",-0.05,0.9,"Ebbinghaus_0.90000_-0.0500.png","B",77,1626217,1.046,"arrowleft","arrowright",1,"Incongruent",0.05,"Incongruent - Strong","Hard"
"bsvxfugrwp","Ebbinghaus",0.14856,-0.9,"Ebbinghaus_-0.9000_0.14856.png","B",78,1627889,0.988,"arrowleft","arrowleft",0,"Congruent",0.14856,"Congruent - Strong","Hard"
"bsvxfugrwp","Ebbinghaus",-0.2687,-0.6,"Ebbinghaus_-0.6000_-0.2687.png","B",79,1629943,0.722,"arrowright","arrowright",0,"Congruent",0.2687,"Congruent - Mild","Easy"
"bsvxfugrwp","Ebbinghaus",0.41515,-1.5,"Ebbinghaus_-1.5000_0.41515.png","B",80,1631574,0.656,"arrowleft","arrowleft",0,"Congruent",0.41515,"Congruent - Strong","Easy"
"bsvxfugrwp","VerticalHorizontal",-0.08913,-9,"VerticalHorizontal_-9.0000_-0.08913.png","B",1,1654469,0.557,"arrowright","arrowright",0,"Congruent",0.08913,"Congruent - Mild","Hard"
"bsvxfugrwp","VerticalHorizontal",0.16122,18,"VerticalHorizontal_18.0000_0.16122.png","B",2,1655785,1.19,"arrowleft","arrowleft",0,"Incongruent",0.16122,"Incongruent - Mild","Easy"
"bsvxfugrwp","VerticalHorizontal",-0.08913,45,"VerticalHorizontal_45.0000_-0.08913.png","B",3,1658099,1.253,"arrowright","arrowright",0,"Incongruent",0.08913,"Incongruent - Strong","Hard"
"bsvxfugrwp","VerticalHorizontal",-0.03,36,"VerticalHorizontal_36.0000_-0.0300.png","B",4,1660040,0.808,"arrowright","arrowright",0,"Incongruent",0.03,"Incongruent - Strong","Hard"
"bsvxfugrwp","VerticalHorizontal",-0.16122,45,"VerticalHorizontal_45.0000_-0.16122.png","B",5,1661807,0.889,"arrowright","arrowright",0,"Incongruent",0.16122,"Incongruent - Strong","Easy"
"bsvxfugrwp","VerticalHorizontal",0.24909,-18,"VerticalHorizontal_-18.000_0.24909.png","B",6,1663414,0.609,"arrowleft","arrowleft",0,"Congruent",0.24909,"Congruent - Mild","Easy"
"bsvxfugrwp","VerticalHorizontal",-0.03,-45,"VerticalHorizontal_-45.000_-0.0300.png","B",7,1664991,0.872,"arrowright","arrowright",0,"Congruent",0.03,"Congruent - Strong","Hard"
"bsvxfugrwp","VerticalHorizontal",0.03,45,"VerticalHorizontal_45.0000_0.03000.png","B",8,1666746,0.834,"arrowright","arrowleft",1,"Incongruent",0.03,"Incongruent - Strong","Hard"
"bsvxfugrwp","VerticalHorizontal",-0.24909,36,"VerticalHorizontal_36.0000_-0.24909.png","B",9,1668215,0.622,"arrowright","arrowright",0,"Incongruent",0.24909,"Incongruent - Strong","Easy"
"bsvxfugrwp","VerticalHorizontal",0.24909,-45,"VerticalHorizontal_-45.000_0.24909.png","B",10,1669755,0.755,"arrowleft","arrowleft",0,"Congruent",0.24909,"Congruent - Strong","Easy"
"bsvxfugrwp","VerticalHorizontal",0.08913,9,"VerticalHorizontal_9.00000_0.08913.png","B",11,1671465,1.073,"arrowright","arrowleft",1,"Incongruent",0.08913,"Incongruent - Mild","Hard"
"bsvxfugrwp","VerticalHorizontal",-0.08913,-27,"VerticalHorizontal_-27.000_-0.08913.png","B",12,1673364,0.581,"arrowright","arrowright",0,"Congruent",0.08913,"Congruent - Strong","Hard"
"bsvxfugrwp","VerticalHorizontal",-0.24909,-18,"VerticalHorizontal_-18.000_-0.24909.png","B",13,1675033,0.588,"arrowright","arrowright",0,"Congruent",0.24909,"Congruent - Mild","Easy"
"bsvxfugrwp","VerticalHorizontal",-0.16122,-18,"VerticalHorizontal_-18.000_-0.16122.png","B",14,1676654,0.63,"arrowright","arrowright",0,"Congruent",0.16122,"Congruent - Mild","Easy"
"bsvxfugrwp","VerticalHorizontal",-0.03,18,"VerticalHorizontal_18.0000_-0.0300.png","B",15,1678022,1.166,"arrowright","arrowright",0,"Incongruent",0.03,"Incongruent - Mild","Hard"
"bsvxfugrwp","VerticalHorizontal",-0.16122,-9,"VerticalHorizontal_-9.0000_-0.16122.png","B",16,1680080,0.744,"arrowright","arrowright",0,"Congruent",0.16122,"Congruent - Mild","Easy"
"bsvxfugrwp","VerticalHorizontal",0.16122,-36,"VerticalHorizontal_-36.000_0.16122.png","B",17,1681490,1.081,"arrowleft","arrowleft",0,"Congruent",0.16122,"Congruent - Strong","Easy"
"bsvxfugrwp","VerticalHorizontal",-0.16122,9,"VerticalHorizontal_9.00000_-0.16122.png","B",18,1683600,1.269,"arrowright","arrowright",0,"Incongruent",0.16122,"Incongruent - Mild","Easy"
"bsvxfugrwp","VerticalHorizontal",-0.16122,-36,"VerticalHorizontal_-36.000_-0.16122.png","B",19,1685637,0.698,"arrowright","arrowright",0,"Congruent",0.16122,"Congruent - Strong","Easy"
"bsvxfugrwp","VerticalHorizontal",0.24909,-36,"VerticalHorizontal_-36.000_0.24909.png","B",20,1687390,0.603,"arrowleft","arrowleft",0,"Congruent",0.24909,"Congruent - Strong","Easy"
"bsvxfugrwp","VerticalHorizontal",-0.16122,18,"VerticalHorizontal_18.0000_-0.16122.png","B",21,1688658,0.928,"arrowright","arrowright",0,"Incongruent",0.16122,"Incongruent - Mild","Easy"
"bsvxfugrwp","VerticalHorizontal",-0.08913,27,"VerticalHorizontal_27.0000_-0.08913.png","B",22,1690638,0.948,"arrowright","arrowright",0,"Incongruent",0.08913,"Incongruent - Strong","Hard"
"bsvxfugrwp","VerticalHorizontal",-0.08913,36,"VerticalHorizontal_36.0000_-0.08913.png","B",23,1692322,1.399,"arrowright","arrowright",0,"Incongruent",0.08913,"Incongruent - Strong","Hard"
"bsvxfugrwp","VerticalHorizontal",-0.03,45,"VerticalHorizontal_45.0000_-0.0300.png","B",24,1694711,0.911,"arrowleft","arrowright",1,"Incongruent",0.03,"Incongruent - Strong","Hard"
"bsvxfugrwp","VerticalHorizontal",0.08913,-45,"VerticalHorizontal_-45.000_0.08913.png","B",25,1696693,1.032,"arrowleft","arrowleft",0,"Congruent",0.08913,"Congruent - Strong","Hard"
"bsvxfugrwp","VerticalHorizontal",-0.03,-18,"VerticalHorizontal_-18.000_-0.0300.png","B",26,1698520,0.633,"arrowright","arrowright",0,"Congruent",0.03,"Congruent - Mild","Hard"
"bsvxfugrwp","VerticalHorizontal",0.08913,27,"VerticalHorizontal_27.0000_0.08913.png","B",27,1699817,1.245,"arrowleft","arrowleft",0,"Incongruent",0.08913,"Incongruent - Strong","Hard"
"bsvxfugrwp","VerticalHorizontal",0.08913,36,"VerticalHorizontal_36.0000_0.08913.png","B",28,1702154,0.938,"arrowright","arrowleft",1,"Incongruent",0.08913,"Incongruent - Strong","Hard"
"bsvxfugrwp","VerticalHorizontal",0.16122,-27,"VerticalHorizontal_-27.000_0.16122.png","B",29,1703947,0.742,"arrowleft","arrowleft",0,"Congruent",0.16122,"Congruent - Strong","Easy"
"bsvxfugrwp","VerticalHorizontal",0.16122,-45,"VerticalHorizontal_-45.000_0.16122.png","B",30,1705608,0.819,"arrowleft","arrowleft",0,"Congruent",0.16122,"Congruent - Strong","Easy"
"bsvxfugrwp","VerticalHorizontal",-0.16122,27,"VerticalHorizontal_27.0000_-0.16122.png","B",31,1707077,1.191,"arrowright","arrowright",0,"Incongruent",0.16122,"Incongruent - Strong","Easy"
"bsvxfugrwp","VerticalHorizontal",0.16122,45,"VerticalHorizontal_45.0000_0.16122.png","B",32,1709162,0.816,"arrowleft","arrowleft",0,"Incongruent",0.16122,"Incongruent - Strong","Easy"
"bsvxfugrwp","VerticalHorizontal",-0.16122,-27,"VerticalHorizontal_-27.000_-0.16122.png","B",33,1710696,0.737,"arrowright","arrowright",0,"Congruent",0.16122,"Congruent - Strong","Easy"
"bsvxfugrwp","VerticalHorizontal",0.16122,9,"VerticalHorizontal_9.00000_0.16122.png","B",34,1712416,0.66,"arrowleft","arrowleft",0,"Incongruent",0.16122,"Incongruent - Mild","Easy"
"bsvxfugrwp","VerticalHorizontal",0.03,-36,"VerticalHorizontal_-36.000_0.03000.png","B",35,1713967,1.066,"arrowleft","arrowleft",0,"Congruent",0.03,"Congruent - Strong","Hard"
"bsvxfugrwp","VerticalHorizontal",0.08913,45,"VerticalHorizontal_45.0000_0.08913.png","B",36,1716054,1.154,"arrowright","arrowleft",1,"Incongruent",0.08913,"Incongruent - Strong","Hard"
"bsvxfugrwp","VerticalHorizontal",-0.03,-36,"VerticalHorizontal_-36.000_-0.0300.png","B",37,1718222,0.436,"arrowright","arrowright",0,"Congruent",0.03,"Congruent - Strong","Hard"
"bsvxfugrwp","VerticalHorizontal",0.16122,36,"VerticalHorizontal_36.0000_0.16122.png","B",38,1719422,0.642,"arrowleft","arrowleft",0,"Incongruent",0.16122,"Incongruent - Strong","Easy"
"bsvxfugrwp","VerticalHorizontal",0.03,-27,"VerticalHorizontal_-27.000_0.03000.png","B",39,1720686,1.491,"arrowleft","arrowleft",0,"Congruent",0.03,"Congruent - Strong","Hard"
"bsvxfugrwp","VerticalHorizontal",-0.16122,-45,"VerticalHorizontal_-45.000_-0.16122.png","B",40,1723162,0.538,"arrowright","arrowright",0,"Congruent",0.16122,"Congruent - Strong","Easy"
"bsvxfugrwp","VerticalHorizontal",0.24909,36,"VerticalHorizontal_36.0000_0.24909.png","B",41,1724587,0.551,"arrowleft","arrowleft",0,"Incongruent",0.24909,"Incongruent - Strong","Easy"
"bsvxfugrwp","VerticalHorizontal",0.24909,9,"VerticalHorizontal_9.00000_0.24909.png","B",42,1725847,0.605,"arrowleft","arrowleft",0,"Incongruent",0.24909,"Incongruent - Mild","Easy"
"bsvxfugrwp","VerticalHorizontal",0.24909,45,"VerticalHorizontal_45.0000_0.24909.png","B",43,1727265,0.799,"arrowleft","arrowleft",0,"Incongruent",0.24909,"Incongruent - Strong","Easy"
"bsvxfugrwp","VerticalHorizontal",-0.08913,18,"VerticalHorizontal_18.0000_-0.08913.png","B",44,1728824,0.67,"arrowright","arrowright",0,"Incongruent",0.08913,"Incongruent - Mild","Hard"
"bsvxfugrwp","VerticalHorizontal",0.03,-9,"VerticalHorizontal_-9.0000_0.03000.png","B",45,1730510,0.552,"arrowright","arrowleft",1,"Congruent",0.03,"Congruent - Mild","Hard"
"bsvxfugrwp","VerticalHorizontal",-0.03,27,"VerticalHorizontal_27.0000_-0.0300.png","B",46,1731742,1.834,"arrowleft","arrowright",1,"Incongruent",0.03,"Incongruent - Strong","Hard"
"bsvxfugrwp","VerticalHorizontal",0.08913,18,"VerticalHorizontal_18.0000_0.08913.png","B",47,1734551,1.168,"arrowleft","arrowleft",0,"Incongruent",0.08913,"Incongruent - Mild","Hard"
"bsvxfugrwp","VerticalHorizontal",-0.08913,-36,"VerticalHorizontal_-36.000_-0.08913.png","B",48,1736587,0.575,"arrowright","arrowright",0,"Congruent",0.08913,"Congruent - Strong","Hard"
"bsvxfugrwp","VerticalHorizontal",0.08913,-27,"VerticalHorizontal_-27.000_0.08913.png","B",49,1738023,0.527,"arrowleft","arrowleft",0,"Congruent",0.08913,"Congruent - Strong","Hard"
"bsvxfugrwp","VerticalHorizontal",0.03,36,"VerticalHorizontal_36.0000_0.03000.png","B",50,1739270,0.649,"arrowright","arrowleft",1,"Incongruent",0.03,"Incongruent - Strong","Hard"
"bsvxfugrwp","VerticalHorizontal",-0.24909,-36,"VerticalHorizontal_-36.000_-0.24909.png","B",51,1740914,0.483,"arrowright","arrowright",0,"Congruent",0.24909,"Congruent - Strong","Easy"
"bsvxfugrwp","VerticalHorizontal",-0.08913,9,"VerticalHorizontal_9.00000_-0.08913.png","B",52,1742407,1.249,"arrowright","arrowright",0,"Incongruent",0.08913,"Incongruent - Mild","Hard"
"bsvxfugrwp","VerticalHorizontal",0.24909,-27,"VerticalHorizontal_-27.000_0.24909.png","B",53,1744628,0.889,"arrowleft","arrowleft",0,"Congruent",0.24909,"Congruent - Strong","Easy"
"bsvxfugrwp","VerticalHorizontal",-0.08913,-18,"VerticalHorizontal_-18.000_-0.08913.png","B",54,1746347,0.504,"arrowright","arrowright",0,"Congruent",0.08913,"Congruent - Mild","Hard"
"bsvxfugrwp","VerticalHorizontal",0.03,-45,"VerticalHorizontal_-45.000_0.03000.png","B",55,1747666,0.769,"arrowleft","arrowleft",0,"Congruent",0.03,"Congruent - Strong","Hard"
"bsvxfugrwp","VerticalHorizontal",-0.24909,-45,"VerticalHorizontal_-45.000_-0.24909.png","B",56,1749054,0.546,"arrowright","arrowright",0,"Congruent",0.24909,"Congruent - Strong","Easy"
"bsvxfugrwp","VerticalHorizontal",-0.08913,-45,"VerticalHorizontal_-45.000_-0.08913.png","B",57,1750592,0.957,"arrowright","arrowright",0,"Congruent",0.08913,"Congruent - Strong","Hard"
"bsvxfugrwp","VerticalHorizontal",0.03,-18,"VerticalHorizontal_-18.000_0.03000.png","B",58,1752517,0.612,"arrowleft","arrowleft",0,"Congruent",0.03,"Congruent - Mild","Hard"
"bsvxfugrwp","VerticalHorizontal",0.16122,-9,"VerticalHorizontal_-9.0000_0.16122.png","B",59,1754037,1.359,"arrowleft","arrowleft",0,"Congruent",0.16122,"Congruent - Mild","Easy"
"bsvxfugrwp","VerticalHorizontal",-0.24909,-9,"VerticalHorizontal_-9.0000_-0.24909.png","B",60,1756312,0.503,"arrowright","arrowright",0,"Congruent",0.24909,"Congruent - Mild","Easy"
"bsvxfugrwp","VerticalHorizontal",-0.03,-27,"VerticalHorizontal_-27.000_-0.0300.png","B",61,1757535,0.407,"arrowright","arrowright",0,"Congruent",0.03,"Congruent - Strong","Hard"
"bsvxfugrwp","VerticalHorizontal",0.03,18,"VerticalHorizontal_18.0000_0.03000.png","B",62,1758654,1.128,"arrowleft","arrowleft",0,"Incongruent",0.03,"Incongruent - Mild","Hard"
"bsvxfugrwp","VerticalHorizontal",0.24909,27,"VerticalHorizontal_27.0000_0.24909.png","B",63,1760703,0.828,"arrowleft","arrowleft",0,"Incongruent",0.24909,"Incongruent - Strong","Easy"
"bsvxfugrwp","VerticalHorizontal",-0.03,9,"VerticalHorizontal_9.00000_-0.0300.png","B",64,1762641,0.519,"arrowright","arrowright",0,"Incongruent",0.03,"Incongruent - Mild","Hard"
"bsvxfugrwp","VerticalHorizontal",0.24909,18,"VerticalHorizontal_18.0000_0.24909.png","B",65,1764269,0.557,"arrowleft","arrowleft",0,"Incongruent",0.24909,"Incongruent - Mild","Easy"
"bsvxfugrwp","VerticalHorizontal",-0.24909,-27,"VerticalHorizontal_-27.000_-0.24909.png","B",66,1765918,0.529,"arrowright","arrowright",0,"Congruent",0.24909,"Congruent - Strong","Easy"
"bsvxfugrwp","VerticalHorizontal",0.08913,-18,"VerticalHorizontal_-18.000_0.08913.png","B",67,1767462,0.722,"arrowleft","arrowleft",0,"Congruent",0.08913,"Congruent - Mild","Hard"
"bsvxfugrwp","VerticalHorizontal",0.03,27,"VerticalHorizontal_27.0000_0.03000.png","B",68,1769230,0.782,"arrowright","arrowleft",1,"Incongruent",0.03,"Incongruent - Strong","Hard"
"bsvxfugrwp","VerticalHorizontal",-0.24909,18,"VerticalHorizontal_18.0000_-0.24909.png","B",69,1770965,0.501,"arrowright","arrowright",0,"Incongruent",0.24909,"Incongruent - Mild","Easy"
"bsvxfugrwp","VerticalHorizontal",0.08913,-36,"VerticalHorizontal_-36.000_0.08913.png","B",70,1772519,0.567,"arrowleft","arrowleft",0,"Congruent",0.08913,"Congruent - Strong","Hard"
"bsvxfugrwp","VerticalHorizontal",-0.16122,36,"VerticalHorizontal_36.0000_-0.16122.png","B",71,1773843,0.767,"arrowleft","arrowright",1,"Incongruent",0.16122,"Incongruent - Strong","Easy"
"bsvxfugrwp","VerticalHorizontal",-0.24909,27,"VerticalHorizontal_27.0000_-0.24909.png","B",72,1775414,0.636,"arrowright","arrowright",0,"Incongruent",0.24909,"Incongruent - Strong","Easy"
"bsvxfugrwp","VerticalHorizontal",0.08913,-9,"VerticalHorizontal_-9.0000_0.08913.png","B",73,1777035,0.716,"arrowleft","arrowleft",0,"Congruent",0.08913,"Congruent - Mild","Hard"
"bsvxfugrwp","VerticalHorizontal",-0.24909,9,"VerticalHorizontal_9.00000_-0.24909.png","B",74,1778689,0.537,"arrowright","arrowright",0,"Incongruent",0.24909,"Incongruent - Mild","Easy"
"bsvxfugrwp","VerticalHorizontal",0.24909,-9,"VerticalHorizontal_-9.0000_0.24909.png","B",75,1779892,0.705,"arrowleft","arrowleft",0,"Congruent",0.24909,"Congruent - Mild","Easy"
"bsvxfugrwp","VerticalHorizontal",0.16122,27,"VerticalHorizontal_27.0000_0.16122.png","B",76,1781582,0.808,"arrowleft","arrowleft",0,"Incongruent",0.16122,"Incongruent - Strong","Easy"
"bsvxfugrwp","VerticalHorizontal",0.03,9,"VerticalHorizontal_9.00000_0.03000.png","B",77,1783326,1.568,"arrowright","arrowleft",1,"Incongruent",0.03,"Incongruent - Mild","Hard"
"bsvxfugrwp","VerticalHorizontal",0.16122,-18,"VerticalHorizontal_-18.000_0.16122.png","B",78,1785722,0.611,"arrowleft","arrowleft",0,"Congruent",0.16122,"Congruent - Mild","Easy"
"bsvxfugrwp","VerticalHorizontal",-0.24909,45,"VerticalHorizontal_45.0000_-0.24909.png","B",79,1787221,0.995,"arrowright","arrowright",0,"Incongruent",0.24909,"Incongruent - Strong","Easy"
"bsvxfugrwp","VerticalHorizontal",-0.03,-9,"VerticalHorizontal_-9.0000_-0.0300.png","B",80,1788912,0.929,"arrowleft","arrowright",1,"Congruent",0.03,"Congruent - Mild","Hard"
"524xnvb3s1","MullerLyer",-0.08716,15,"MullerLyer_15.0000_-0.08716.png","A",2,319282,2.202,"arrowup","arrowdown",1,"Incongruent",0.08716,"Incongruent - Mild","Hard"
"524xnvb3s1","MullerLyer",0.30447,-21,"MullerLyer_-21.000_0.30447.png","A",3,322192,0.723,"arrowup","arrowup",0,"Congruent",0.30447,"Congruent - Strong","Easy"
"524xnvb3s1","MullerLyer",-0.08716,-27,"MullerLyer_-27.000_-0.08716.png","A",4,323556,0.447,"arrowdown","arrowdown",0,"Congruent",0.08716,"Congruent - Strong","Hard"
"524xnvb3s1","MullerLyer",-0.30447,9,"MullerLyer_9.00000_-0.30447.png","A",5,324869,0.886,"arrowdown","arrowdown",0,"Incongruent",0.30447,"Incongruent - Mild","Easy"
"524xnvb3s1","MullerLyer",0.18509,21,"MullerLyer_21.0000_0.18509.png","A",6,326420,1.951,"arrowdown","arrowup",1,"Incongruent",0.18509,"Incongruent - Strong","Hard"
"524xnvb3s1","MullerLyer",-0.08716,27,"MullerLyer_27.0000_-0.08716.png","A",7,329443,2.536,"arrowup","arrowdown",1,"Incongruent",0.08716,"Incongruent - Strong","Hard"
"524xnvb3s1","MullerLyer",0.30447,-9,"MullerLyer_-9.0000_0.30447.png","A",8,332606,0.725,"arrowup","arrowup",0,"Congruent",0.30447,"Congruent - Mild","Easy"
"524xnvb3s1","MullerLyer",0.30447,21,"MullerLyer_21.0000_0.30447.png","A",9,334092,1.799,"arrowup","arrowup",0,"Incongruent",0.30447,"Incongruent - Strong","Easy"
"524xnvb3s1","MullerLyer",0.45,21,"MullerLyer_21.0000_0.45000.png","A",10,336856,1.123,"arrowup","arrowup",0,"Incongruent",0.45,"Incongruent - Strong","Easy"
"524xnvb3s1","MullerLyer",-0.18509,9,"MullerLyer_9.00000_-0.18509.png","A",11,338795,1.024,"arrowdown","arrowdown",0,"Incongruent",0.18509,"Incongruent - Mild","Hard"
"524xnvb3s1","MullerLyer",-0.45,-21,"MullerLyer_-21.000_-0.4500.png","A",12,340839,0.708,"arrowdown","arrowdown",0,"Congruent",0.45,"Congruent - Strong","Easy"
"524xnvb3s1","MullerLyer",-0.30447,21,"MullerLyer_21.0000_-0.30447.png","A",13,342194,2.073,"arrowdown","arrowdown",0,"Incongruent",0.30447,"Incongruent - Strong","Easy"
"524xnvb3s1","MullerLyer",0.45,-27,"MullerLyer_-27.000_0.45000.png","A",15,348485,0.694,"arrowup","arrowup",0,"Congruent",0.45,"Congruent - Strong","Easy"
"524xnvb3s1","MullerLyer",0.08716,-3,"MullerLyer_-3.0000_0.08716.png","A",16,350174,0.781,"arrowup","arrowup",0,"Congruent",0.08716,"Congruent - Mild","Hard"
"524xnvb3s1","MullerLyer",-0.18509,21,"MullerLyer_21.0000_-0.18509.png","A",17,351990,2.125,"arrowdown","arrowdown",0,"Incongruent",0.18509,"Incongruent - Strong","Hard"
"524xnvb3s1","MullerLyer",0.08716,-27,"MullerLyer_-27.000_0.08716.png","A",18,354845,1.527,"arrowup","arrowup",0,"Congruent",0.08716,"Congruent - Strong","Hard"
"524xnvb3s1","MullerLyer",-0.45,-27,"MullerLyer_-27.000_-0.4500.png","A",19,357135,0.524,"arrowdown","arrowdown",0,"Congruent",0.45,"Congruent - Strong","Easy"
"524xnvb3s1","MullerLyer",-0.18509,-3,"MullerLyer_-3.0000_-0.18509.png","A",20,358352,1.324,"arrowdown","arrowdown",0,"Congruent",0.18509,"Congruent - Mild","Hard"
"524xnvb3s1","MullerLyer",-0.45,-9,"MullerLyer_-9.0000_-0.4500.png","A",22,364066,0.73,"arrowdown","arrowdown",0,"Congruent",0.45,"Congruent - Mild","Easy"
"524xnvb3s1","MullerLyer",0.18509,-27,"MullerLyer_-27.000_0.18509.png","A",23,365816,0.531,"arrowup","arrowup",0,"Congruent",0.18509,"Congruent - Strong","Hard"
"524xnvb3s1","MullerLyer",0.08716,-9,"MullerLyer_-9.0000_0.08716.png","A",24,367434,0.721,"arrowup","arrowup",0,"Congruent",0.08716,"Congruent - Mild","Hard"
"524xnvb3s1","MullerLyer",0.30447,-15,"MullerLyer_-15.000_0.30447.png","A",25,369199,0.532,"arrowup","arrowup",0,"Congruent",0.30447,"Congruent - Mild","Easy"
"524xnvb3s1","MullerLyer",0.18509,-9,"MullerLyer_-9.0000_0.18509.png","A",26,370385,0.571,"arrowup","arrowup",0,"Congruent",0.18509,"Congruent - Mild","Hard"
"524xnvb3s1","MullerLyer",-0.45,9,"MullerLyer_9.00000_-0.4500.png","A",27,371738,0.57,"arrowdown","arrowdown",0,"Incongruent",0.45,"Incongruent - Mild","Easy"
"524xnvb3s1","MullerLyer",-0.18509,-15,"MullerLyer_-15.000_-0.18509.png","A",28,373160,0.676,"arrowdown","arrowdown",0,"Congruent",0.18509,"Congruent - Mild","Hard"
"524xnvb3s1","MullerLyer",0.30447,9,"MullerLyer_9.00000_0.30447.png","A",29,374847,0.701,"arrowup","arrowup",0,"Incongruent",0.30447,"Incongruent - Mild","Easy"
"524xnvb3s1","MullerLyer",0.08716,-21,"MullerLyer_-21.000_0.08716.png","A",30,376296,0.7,"arrowup","arrowup",0,"Congruent",0.08716,"Congruent - Strong","Hard"
"524xnvb3s1","MullerLyer",-0.30447,-27,"MullerLyer_-27.000_-0.30447.png","A",31,377880,0.692,"arrowdown","arrowdown",0,"Congruent",0.30447,"Congruent - Strong","Easy"
"524xnvb3s1","MullerLyer",0.45,15,"MullerLyer_15.0000_0.45000.png","A",32,379520,0.684,"arrowup","arrowup",0,"Incongruent",0.45,"Incongruent - Mild","Easy"
"524xnvb3s1","MullerLyer",0.18509,-15,"MullerLyer_-15.000_0.18509.png","A",33,381131,0.601,"arrowup","arrowup",0,"Congruent",0.18509,"Congruent - Mild","Hard"
"524xnvb3s1","MullerLyer",0.18509,27,"MullerLyer_27.0000_0.18509.png","A",34,382541,0.543,"arrowdown","arrowup",1,"Incongruent",0.18509,"Incongruent - Strong","Hard"
"524xnvb3s1","MullerLyer",0.30447,27,"MullerLyer_27.0000_0.30447.png","A",35,383766,0.99,"arrowup","arrowup",0,"Incongruent",0.30447,"Incongruent - Strong","Easy"
"524xnvb3s1","MullerLyer",-0.18509,27,"MullerLyer_27.0000_-0.18509.png","A",37,389960,1.78,"arrowdown","arrowdown",0,"Incongruent",0.18509,"Incongruent - Strong","Hard"
"524xnvb3s1","MullerLyer",-0.18509,-21,"MullerLyer_-21.000_-0.18509.png","A",38,392525,0.711,"arrowdown","arrowdown",0,"Congruent",0.18509,"Congruent - Strong","Hard"
"524xnvb3s1","MullerLyer",0.45,9,"MullerLyer_9.00000_0.45000.png","A",39,393869,0.511,"arrowup","arrowup",0,"Incongruent",0.45,"Incongruent - Mild","Easy"
"524xnvb3s1","MullerLyer",0.45,-3,"MullerLyer_-3.0000_0.45000.png","A",40,395207,0.509,"arrowup","arrowup",0,"Congruent",0.45,"Congruent - Mild","Easy"
"524xnvb3s1","MullerLyer",-0.45,15,"MullerLyer_15.0000_-0.4500.png","A",41,396550,0.67,"arrowdown","arrowdown",0,"Incongruent",0.45,"Incongruent - Mild","Easy"
"524xnvb3s1","MullerLyer",0.18509,3,"MullerLyer_3.00000_0.18509.png","A",42,397876,1.505,"arrowup","arrowup",0,"Incongruent",0.18509,"Incongruent - Mild","Hard"
"524xnvb3s1","MullerLyer",-0.30447,15,"MullerLyer_15.0000_-0.30447.png","A",43,400042,1.594,"arrowdown","arrowdown",0,"Incongruent",0.30447,"Incongruent - Mild","Easy"
"524xnvb3s1","MullerLyer",-0.30447,3,"MullerLyer_3.00000_-0.30447.png","A",44,402254,0.87,"arrowdown","arrowdown",0,"Incongruent",0.30447,"Incongruent - Mild","Easy"
"524xnvb3s1","MullerLyer",-0.30447,-15,"MullerLyer_-15.000_-0.30447.png","A",45,404067,1.177,"arrowup","arrowdown",1,"Congruent",0.30447,"Congruent - Mild","Easy"
"524xnvb3s1","MullerLyer",-0.08716,9,"MullerLyer_9.00000_-0.08716.png","A",46,405874,1.618,"arrowup","arrowdown",1,"Incongruent",0.08716,"Incongruent - Mild","Hard"
"524xnvb3s1","MullerLyer",0.30447,-27,"MullerLyer_-27.000_0.30447.png","A",47,408107,0.561,"arrowup","arrowup",0,"Congruent",0.30447,"Congruent - Strong","Easy"
"524xnvb3s1","MullerLyer",0.08716,27,"MullerLyer_27.0000_0.08716.png","A",49,413756,0.968,"arrowdown","arrowup",1,"Incongruent",0.08716,"Incongruent - Strong","Hard"
"524xnvb3s1","MullerLyer",0.18509,9,"MullerLyer_9.00000_0.18509.png","A",50,415478,1.142,"arrowup","arrowup",0,"Incongruent",0.18509,"Incongruent - Mild","Hard"
"524xnvb3s1","MullerLyer",-0.45,-15,"MullerLyer_-15.000_-0.4500.png","A",51,417428,0.545,"arrowdown","arrowdown",0,"Congruent",0.45,"Congruent - Mild","Easy"
"524xnvb3s1","MullerLyer",0.08716,9,"MullerLyer_9.00000_0.08716.png","A",52,418748,1.32,"arrowup","arrowup",0,"Incongruent",0.08716,"Incongruent - Mild","Hard"
"524xnvb3s1","MullerLyer",-0.18509,-9,"MullerLyer_-9.0000_-0.18509.png","A",53,421019,0.841,"arrowdown","arrowdown",0,"Congruent",0.18509,"Congruent - Mild","Hard"
"524xnvb3s1","MullerLyer",-0.08716,-9,"MullerLyer_-9.0000_-0.08716.png","A",56,429783,0.597,"arrowdown","arrowdown",0,"Congruent",0.08716,"Congruent - Mild","Hard"
"524xnvb3s1","MullerLyer",0.30447,-3,"MullerLyer_-3.0000_0.30447.png","A",57,431360,0.612,"arrowup","arrowup",0,"Congruent",0.30447,"Congruent - Mild","Easy"
"524xnvb3s1","MullerLyer",-0.08716,-15,"MullerLyer_-15.000_-0.08716.png","A",58,433072,0.613,"arrowdown","arrowdown",0,"Congruent",0.08716,"Congruent - Mild","Hard"
"524xnvb3s1","MullerLyer",0.45,-15,"MullerLyer_-15.000_0.45000.png","A",59,434459,0.449,"arrowup","arrowup",0,"Congruent",0.45,"Congruent - Mild","Easy"
"524xnvb3s1","MullerLyer",-0.45,3,"MullerLyer_3.00000_-0.4500.png","A",60,435915,0.689,"arrowdown","arrowdown",0,"Incongruent",0.45,"Incongruent - Mild","Easy"
"524xnvb3s1","MullerLyer",-0.30447,-21,"MullerLyer_-21.000_-0.30447.png","A",61,437690,0.666,"arrowdown","arrowdown",0,"Congruent",0.30447,"Congruent - Strong","Easy"
"524xnvb3s1","MullerLyer",0.08716,-15,"MullerLyer_-15.000_0.08716.png","A",62,439061,0.519,"arrowup","arrowup",0,"Congruent",0.08716,"Congruent - Mild","Hard"
"524xnvb3s1","MullerLyer",-0.30447,-3,"MullerLyer_-3.0000_-0.30447.png","A",63,440497,0.555,"arrowdown","arrowdown",0,"Congruent",0.30447,"Congruent - Mild","Easy"
"524xnvb3s1","MullerLyer",-0.18509,-27,"MullerLyer_-27.000_-0.18509.png","A",64,441841,0.643,"arrowdown","arrowdown",0,"Congruent",0.18509,"Congruent - Strong","Hard"
"524xnvb3s1","MullerLyer",0.45,-21,"MullerLyer_-21.000_0.45000.png","A",65,443133,0.543,"arrowup","arrowup",0,"Congruent",0.45,"Congruent - Strong","Easy"
"524xnvb3s1","MullerLyer",-0.45,27,"MullerLyer_27.0000_-0.4500.png","A",66,444773,1.919,"arrowdown","arrowdown",0,"Incongruent",0.45,"Incongruent - Strong","Easy"
"524xnvb3s1","MullerLyer",0.30447,3,"MullerLyer_3.00000_0.30447.png","A",67,447585,0.9,"arrowup","arrowup",0,"Incongruent",0.30447,"Incongruent - Mild","Easy"
"524xnvb3s1","MullerLyer",0.08716,15,"MullerLyer_15.0000_0.08716.png","A",68,449496,1.572,"arrowdown","arrowup",1,"Incongruent",0.08716,"Incongruent - Mild","Hard"
"524xnvb3s1","MullerLyer",-0.30447,-9,"MullerLyer_-9.0000_-0.30447.png","A",69,452023,0.613,"arrowdown","arrowdown",0,"Congruent",0.30447,"Congruent - Mild","Easy"
"524xnvb3s1","MullerLyer",0.18509,-21,"MullerLyer_-21.000_0.18509.png","A",70,453298,0.611,"arrowup","arrowup",0,"Congruent",0.18509,"Congruent - Strong","Hard"
"524xnvb3s1","MullerLyer",0.18509,-3,"MullerLyer_-3.0000_0.18509.png","A",71,454959,0.661,"arrowup","arrowup",0,"Congruent",0.18509,"Congruent - Mild","Hard"
"524xnvb3s1","MullerLyer",0.30447,15,"MullerLyer_15.0000_0.30447.png","A",72,456604,1.353,"arrowup","arrowup",0,"Incongruent",0.30447,"Incongruent - Mild","Easy"
"524xnvb3s1","MullerLyer",-0.08716,3,"MullerLyer_3.00000_-0.08716.png","A",73,458629,2.024,"arrowdown","arrowdown",0,"Incongruent",0.08716,"Incongruent - Mild","Hard"
"524xnvb3s1","MullerLyer",-0.08716,21,"MullerLyer_21.0000_-0.08716.png","A",74,461698,1.531,"arrowup","arrowdown",1,"Incongruent",0.08716,"Incongruent - Strong","Hard"
"524xnvb3s1","MullerLyer",0.45,3,"MullerLyer_3.00000_0.45000.png","A",75,464135,0.646,"arrowup","arrowup",0,"Incongruent",0.45,"Incongruent - Mild","Easy"
"524xnvb3s1","MullerLyer",0.45,-9,"MullerLyer_-9.0000_0.45000.png","A",76,465499,0.53,"arrowup","arrowup",0,"Congruent",0.45,"Congruent - Mild","Easy"
"524xnvb3s1","MullerLyer",-0.45,-3,"MullerLyer_-3.0000_-0.4500.png","A",77,466716,0.56,"arrowdown","arrowdown",0,"Congruent",0.45,"Congruent - Mild","Easy"
"524xnvb3s1","MullerLyer",-0.08716,-21,"MullerLyer_-21.000_-0.08716.png","A",78,468247,0.565,"arrowdown","arrowdown",0,"Congruent",0.08716,"Congruent - Strong","Hard"
"524xnvb3s1","MullerLyer",-0.45,21,"MullerLyer_21.0000_-0.4500.png","A",79,469563,1.77,"arrowdown","arrowdown",0,"Incongruent",0.45,"Incongruent - Strong","Easy"
"524xnvb3s1","MullerLyer",0.45,27,"MullerLyer_27.0000_0.45000.png","A",80,472264,1.196,"arrowup","arrowup",0,"Incongruent",0.45,"Incongruent - Strong","Easy"
"524xnvb3s1","Ebbinghaus",-0.20566,0.45,"Ebbinghaus_0.45000_-0.20566.png","A",1,484768,1.853,"arrowright","arrowright",0,"Incongruent",0.20566,"Incongruent - Mild","Hard"
"524xnvb3s1","Ebbinghaus",0.09684,0.45,"Ebbinghaus_0.45000_0.09684.png","A",3,491846,1.663,"arrowleft","arrowleft",0,"Incongruent",0.09684,"Incongruent - Mild","Hard"
"524xnvb3s1","Ebbinghaus",0.5,1.35,"Ebbinghaus_1.35000_0.50000.png","A",5,498490,2.091,"arrowleft","arrowleft",0,"Incongruent",0.5,"Incongruent - Strong","Easy"
"524xnvb3s1","Ebbinghaus",0.3383,0.15,"Ebbinghaus_0.15000_0.33830.png","A",6,501470,2.127,"arrowleft","arrowleft",0,"Incongruent",0.3383,"Incongruent - Mild","Easy"
"524xnvb3s1","Ebbinghaus",0.3383,0.75,"Ebbinghaus_0.75000_0.33830.png","A",7,504294,1.174,"arrowright","arrowleft",1,"Incongruent",0.3383,"Incongruent - Mild","Easy"
"524xnvb3s1","Ebbinghaus",0.5,-0.75,"Ebbinghaus_-0.7500_0.50000.png","A",8,506534,1.031,"arrowleft","arrowleft",0,"Congruent",0.5,"Congruent - Mild","Easy"
"524xnvb3s1","Ebbinghaus",0.09684,-0.15,"Ebbinghaus_-0.1500_0.09684.png","A",10,513218,1.988,"arrowright","arrowleft",1,"Congruent",0.09684,"Congruent - Mild","Hard"
"524xnvb3s1","Ebbinghaus",-0.3383,-0.15,"Ebbinghaus_-0.1500_-0.3383.png","A",11,515872,1.181,"arrowright","arrowright",0,"Congruent",0.3383,"Congruent - Mild","Easy"
"524xnvb3s1","Ebbinghaus",-0.09684,-0.75,"Ebbinghaus_-0.7500_-0.09684.png","A",13,523013,1.087,"arrowright","arrowright",0,"Congruent",0.09684,"Congruent - Mild","Hard"
"524xnvb3s1","Ebbinghaus",0.5,-1.35,"Ebbinghaus_-1.3500_0.50000.png","A",14,525111,0.767,"arrowleft","arrowleft",0,"Congruent",0.5,"Congruent - Strong","Easy"
"524xnvb3s1","Ebbinghaus",0.09684,-0.45,"Ebbinghaus_-0.4500_0.09684.png","A",15,526751,1.181,"arrowleft","arrowleft",0,"Congruent",0.09684,"Congruent - Mild","Hard"
"524xnvb3s1","Ebbinghaus",-0.09684,1.05,"Ebbinghaus_1.05000_-0.09684.png","A",17,532876,1.785,"arrowleft","arrowright",1,"Incongruent",0.09684,"Incongruent - Strong","Hard"
"524xnvb3s1","Ebbinghaus",-0.3383,0.15,"Ebbinghaus_0.15000_-0.3383.png","A",18,535672,0.756,"arrowright","arrowright",0,"Incongruent",0.3383,"Incongruent - Mild","Easy"
"524xnvb3s1","Ebbinghaus",0.5,0.75,"Ebbinghaus_0.75000_0.50000.png","A",21,547323,1.642,"arrowleft","arrowleft",0,"Incongruent",0.5,"Incongruent - Mild","Easy"
"524xnvb3s1","Ebbinghaus",0.5,-0.45,"Ebbinghaus_-0.4500_0.50000.png","A",22,550060,1.057,"arrowleft","arrowleft",0,"Congruent",0.5,"Congruent - Mild","Easy"
"524xnvb3s1","Ebbinghaus",-0.5,-0.75,"Ebbinghaus_-0.7500_-0.5000.png","A",23,551777,0.628,"arrowright","arrowright",0,"Congruent",0.5,"Congruent - Mild","Easy"
"524xnvb3s1","Ebbinghaus",-0.3383,0.45,"Ebbinghaus_0.45000_-0.3383.png","A",24,553295,2.071,"arrowright","arrowright",0,"Incongruent",0.3383,"Incongruent - Mild","Easy"
"524xnvb3s1","Ebbinghaus",-0.09684,-0.15,"Ebbinghaus_-0.1500_-0.09684.png","A",26,560609,1.588,"arrowleft","arrowright",1,"Congruent",0.09684,"Congruent - Mild","Hard"
"524xnvb3s1","Ebbinghaus",0.09684,0.15,"Ebbinghaus_0.15000_0.09684.png","A",27,562967,1.326,"arrowleft","arrowleft",0,"Incongruent",0.09684,"Incongruent - Mild","Hard"
"524xnvb3s1","Ebbinghaus",-0.3383,-1.05,"Ebbinghaus_-1.0500_-0.3383.png","A",30,572741,0.855,"arrowright","arrowright",0,"Congruent",0.3383,"Congruent - Strong","Easy"
"524xnvb3s1","Ebbinghaus",0.5,-1.05,"Ebbinghaus_-1.0500_0.50000.png","A",31,574359,0.789,"arrowleft","arrowleft",0,"Congruent",0.5,"Congruent - Strong","Easy"
"524xnvb3s1","Ebbinghaus",-0.5,0.15,"Ebbinghaus_0.15000_-0.5000.png","A",32,576243,0.554,"arrowright","arrowright",0,"Incongruent",0.5,"Incongruent - Mild","Easy"
"524xnvb3s1","Ebbinghaus",0.5,0.15,"Ebbinghaus_0.15000_0.50000.png","A",33,577869,2.455,"arrowleft","arrowleft",0,"Incongruent",0.5,"Incongruent - Mild","Easy"
"524xnvb3s1","Ebbinghaus",-0.20566,-1.05,"Ebbinghaus_-1.0500_-0.20566.png","A",34,580931,0.721,"arrowright","arrowright",0,"Congruent",0.20566,"Congruent - Strong","Hard"
"524xnvb3s1","Ebbinghaus",-0.3383,-1.35,"Ebbinghaus_-1.3500_-0.3383.png","A",35,582676,0.952,"arrowright","arrowright",0,"Congruent",0.3383,"Congruent - Strong","Easy"
"524xnvb3s1","Ebbinghaus",0.09684,1.35,"Ebbinghaus_1.35000_0.09684.png","A",37,587887,0.917,"arrowright","arrowleft",1,"Incongruent",0.09684,"Incongruent - Strong","Hard"
"524xnvb3s1","Ebbinghaus",-0.3383,1.05,"Ebbinghaus_1.05000_-0.3383.png","A",38,589776,1.509,"arrowleft","arrowright",1,"Incongruent",0.3383,"Incongruent - Strong","Easy"
"524xnvb3s1","Ebbinghaus",0.3383,1.05,"Ebbinghaus_1.05000_0.33830.png","A",39,592211,2.418,"arrowleft","arrowleft",0,"Incongruent",0.3383,"Incongruent - Strong","Easy"
"524xnvb3s1","Ebbinghaus",-0.20566,-1.35,"Ebbinghaus_-1.3500_-0.20566.png","A",40,595609,1.036,"arrowright","arrowright",0,"Congruent",0.20566,"Congruent - Strong","Hard"
"524xnvb3s1","Ebbinghaus",-0.09684,0.15,"Ebbinghaus_0.15000_-0.09684.png","A",42,601475,1.186,"arrowright","arrowright",0,"Incongruent",0.09684,"Incongruent - Mild","Hard"
"524xnvb3s1","Ebbinghaus",-0.3383,-0.75,"Ebbinghaus_-0.7500_-0.3383.png","A",43,603761,0.835,"arrowright","arrowright",0,"Congruent",0.3383,"Congruent - Mild","Easy"
"524xnvb3s1","Ebbinghaus",-0.09684,0.45,"Ebbinghaus_0.45000_-0.09684.png","A",44,605276,1.457,"arrowleft","arrowright",1,"Incongruent",0.09684,"Incongruent - Mild","Hard"
"524xnvb3s1","Ebbinghaus",0.20566,-0.45,"Ebbinghaus_-0.4500_0.20566.png","A",45,607446,1.198,"arrowleft","arrowleft",0,"Congruent",0.20566,"Congruent - Mild","Hard"
"524xnvb3s1","Ebbinghaus",0.09684,-1.05,"Ebbinghaus_-1.0500_0.09684.png","A",46,609321,0.917,"arrowleft","arrowleft",0,"Congruent",0.09684,"Congruent - Strong","Hard"
"524xnvb3s1","Ebbinghaus",0.20566,-0.15,"Ebbinghaus_-0.1500_0.20566.png","A",48,615303,2.15,"arrowleft","arrowleft",0,"Congruent",0.20566,"Congruent - Mild","Hard"
"524xnvb3s1","Ebbinghaus",0.3383,-1.35,"Ebbinghaus_-1.3500_0.33830.png","A",49,618511,0.63,"arrowleft","arrowleft",0,"Congruent",0.3383,"Congruent - Strong","Easy"
"524xnvb3s1","Ebbinghaus",0.20566,1.05,"Ebbinghaus_1.05000_0.20566.png","A",52,627401,1.013,"arrowright","arrowleft",1,"Incongruent",0.20566,"Incongruent - Strong","Hard"
"524xnvb3s1","Ebbinghaus",0.20566,-1.05,"Ebbinghaus_-1.0500_0.20566.png","A",53,629415,1.294,"arrowleft","arrowleft",0,"Congruent",0.20566,"Congruent - Strong","Hard"
"524xnvb3s1","Ebbinghaus",-0.5,-1.35,"Ebbinghaus_-1.3500_-0.5000.png","A",55,637755,0.626,"arrowright","arrowright",0,"Congruent",0.5,"Congruent - Strong","Easy"
"524xnvb3s1","Ebbinghaus",0.20566,-1.35,"Ebbinghaus_-1.3500_0.20566.png","A",56,639106,0.924,"arrowleft","arrowleft",0,"Congruent",0.20566,"Congruent - Strong","Hard"
"524xnvb3s1","Ebbinghaus",0.3383,-1.05,"Ebbinghaus_-1.0500_0.33830.png","A",57,640892,1.137,"arrowleft","arrowleft",0,"Congruent",0.3383,"Congruent - Strong","Easy"
"524xnvb3s1","Ebbinghaus",0.09684,1.05,"Ebbinghaus_1.05000_0.09684.png","A",58,643010,1.051,"arrowright","arrowleft",1,"Incongruent",0.09684,"Incongruent - Strong","Hard"
"524xnvb3s1","Ebbinghaus",-0.09684,-1.35,"Ebbinghaus_-1.3500_-0.09684.png","A",59,645049,1.468,"arrowright","arrowright",0,"Congruent",0.09684,"Congruent - Strong","Hard"
"524xnvb3s1","Ebbinghaus",-0.5,0.45,"Ebbinghaus_0.45000_-0.5000.png","A",60,647416,1.477,"arrowright","arrowright",0,"Incongruent",0.5,"Incongruent - Mild","Easy"
"524xnvb3s1","Ebbinghaus",0.5,-0.15,"Ebbinghaus_-0.1500_0.50000.png","A",61,649569,0.86,"arrowleft","arrowleft",0,"Congruent",0.5,"Congruent - Mild","Easy"
"524xnvb3s1","Ebbinghaus",-0.3383,-0.45,"Ebbinghaus_-0.4500_-0.3383.png","A",63,654496,1.149,"arrowright","arrowright",0,"Congruent",0.3383,"Congruent - Mild","Easy"
"524xnvb3s1","Ebbinghaus",0.20566,-0.75,"Ebbinghaus_-0.7500_0.20566.png","A",64,656406,0.871,"arrowleft","arrowleft",0,"Congruent",0.20566,"Congruent - Mild","Hard"
"524xnvb3s1","Ebbinghaus",-0.20566,-0.75,"Ebbinghaus_-0.7500_-0.20566.png","A",65,658265,0.74,"arrowright","arrowright",0,"Congruent",0.20566,"Congruent - Mild","Hard"
"524xnvb3s1","Ebbinghaus",-0.5,-0.45,"Ebbinghaus_-0.4500_-0.5000.png","A",66,660044,0.673,"arrowright","arrowright",0,"Congruent",0.5,"Congruent - Mild","Easy"
"524xnvb3s1","Ebbinghaus",0.09684,-0.75,"Ebbinghaus_-0.7500_0.09684.png","A",67,661786,0.947,"arrowleft","arrowleft",0,"Congruent",0.09684,"Congruent - Mild","Hard"
"524xnvb3s1","Ebbinghaus",-0.20566,-0.45,"Ebbinghaus_-0.4500_-0.20566.png","A",68,663629,1.097,"arrowright","arrowright",0,"Congruent",0.20566,"Congruent - Mild","Hard"
"524xnvb3s1","Ebbinghaus",-0.09684,0.75,"Ebbinghaus_0.75000_-0.09684.png","A",69,665423,0.894,"arrowleft","arrowright",1,"Incongruent",0.09684,"Incongruent - Mild","Hard"
"524xnvb3s1","Ebbinghaus",0.5,0.45,"Ebbinghaus_0.45000_0.50000.png","A",71,672619,1.683,"arrowleft","arrowleft",0,"Incongruent",0.5,"Incongruent - Mild","Easy"
"524xnvb3s1","Ebbinghaus",0.3383,-0.45,"Ebbinghaus_-0.4500_0.33830.png","A",72,675338,0.851,"arrowleft","arrowleft",0,"Congruent",0.3383,"Congruent - Mild","Easy"
"524xnvb3s1","Ebbinghaus",0.3383,-0.75,"Ebbinghaus_-0.7500_0.33830.png","A",75,686685,0.665,"arrowleft","arrowleft",0,"Congruent",0.3383,"Congruent - Mild","Easy"
"524xnvb3s1","Ebbinghaus",-0.5,-0.15,"Ebbinghaus_-0.1500_-0.5000.png","A",76,688027,0.555,"arrowright","arrowright",0,"Congruent",0.5,"Congruent - Mild","Easy"
"524xnvb3s1","Ebbinghaus",0.3383,-0.15,"Ebbinghaus_-0.1500_0.33830.png","A",77,689629,1.128,"arrowleft","arrowleft",0,"Congruent",0.3383,"Congruent - Mild","Easy"
"524xnvb3s1","Ebbinghaus",0.09684,-1.35,"Ebbinghaus_-1.3500_0.09684.png","A",78,691668,0.857,"arrowleft","arrowleft",0,"Congruent",0.09684,"Congruent - Strong","Hard"
"524xnvb3s1","Ebbinghaus",-0.5,-1.05,"Ebbinghaus_-1.0500_-0.5000.png","A",79,693228,0.69,"arrowright","arrowright",0,"Congruent",0.5,"Congruent - Strong","Easy"
"524xnvb3s1","Ebbinghaus",-0.09684,1.35,"Ebbinghaus_1.35000_-0.09684.png","A",80,694861,0.649,"arrowleft","arrowright",1,"Incongruent",0.09684,"Incongruent - Strong","Hard"
"524xnvb3s1","VerticalHorizontal",0.12339,-22.5,"VerticalHorizontal_-22.500_0.12339.png","A",1,780606,1.135,"arrowleft","arrowleft",0,"Congruent",0.12339,"Congruent - Mild","Hard"
"524xnvb3s1","VerticalHorizontal",-0.3,-13.5,"VerticalHorizontal_-13.500_-0.3000.png","A",2,782361,0.469,"arrowright","arrowright",0,"Congruent",0.3,"Congruent - Mild","Easy"
"524xnvb3s1","VerticalHorizontal",-0.12339,-22.5,"VerticalHorizontal_-22.500_-0.12339.png","A",3,783637,0.505,"arrowright","arrowright",0,"Congruent",0.12339,"Congruent - Mild","Hard"
"524xnvb3s1","VerticalHorizontal",0.3,-40.5,"VerticalHorizontal_-40.500_0.30000.png","A",4,785023,0.383,"arrowleft","arrowleft",0,"Congruent",0.3,"Congruent - Strong","Easy"
"524xnvb3s1","VerticalHorizontal",-0.20298,22.5,"VerticalHorizontal_22.5000_-0.20298.png","A",5,786248,0.485,"arrowright","arrowright",0,"Incongruent",0.20298,"Incongruent - Mild","Easy"
"524xnvb3s1","VerticalHorizontal",-0.0581,-22.5,"VerticalHorizontal_-22.500_-0.0581.png","A",6,787598,0.632,"arrowright","arrowright",0,"Congruent",0.0581,"Congruent - Mild","Hard"
