Participant,Illusion_Type,Illusion_Difference,Illusion_Strength,File,Block,Trial,ISI,RT,Response,Response_Correct,Error
qbb6xqvqpv,MullerLyer,-0.08716,3.0,MullerLyer_3.00000_-0.08716.png,A,1.0,492113.0,3.966,arrowup,arrowdown,1
qbb6xqvqpv,MullerLyer,-0.18509,-15.0,MullerLyer_-15.000_-0.18509.png,A,2.0,497149.0,0.987,arrowdown,arrowdown,0
qbb6xqvqpv,MullerLyer,-0.45,27.0,MullerLyer_27.0000_-0.4500.png,A,3.0,498780.0,1.089,arrowdown,arrowdown,0
qbb6xqvqpv,MullerLyer,-0.18509,15.0,MullerLyer_15.0000_-0.18509.png,A,4.0,500550.0,1.407,arrowup,arrowdown,1
qbb6xqvqpv,MullerLyer,-0.18509,27.0,MullerLyer_27.0000_-0.18509.png,A,5.0,502774.0,0.781,arrowup,arrowdown,1
qbb6xqvqpv,MullerLyer,0.18509,21.0,MullerLyer_21.0000_0.18509.png,A,6.0,504480.0,1.447,arrowdown,arrowup,1
qbb6xqvqpv,MullerLyer,-0.30447,-3.0,MullerLyer_-3.0000_-0.30447.png,A,7.0,506602.0,0.832,arrowdown,arrowdown,0
qbb6xqvqpv,MullerLyer,0.45,21.0,MullerLyer_21.0000_0.45000.png,A,8.0,508257.0,0.835,arrowup,arrowup,0
qbb6xqvqpv,MullerLyer,-0.45,-21.0,MullerLyer_-21.000_-0.4500.png,A,9.0,510041.0,0.569,arrowdown,arrowdown,0
qbb6xqvqpv,MullerLyer,-0.18509,-21.0,MullerLyer_-21.000_-0.18509.png,A,10.0,511476.0,0.656,arrowdown,arrowdown,0
qbb6xqvqpv,MullerLyer,0.45,9.0,MullerLyer_9.00000_0.45000.png,A,11.0,512914.0,0.538,arrowup,arrowup,0
qbb6xqvqpv,MullerLyer,-0.45,-27.0,MullerLyer_-27.000_-0.4500.png,A,12.0,514173.0,0.478,arrowdown,arrowdown,0
qbb6xqvqpv,MullerLyer,0.18509,15.0,MullerLyer_15.0000_0.18509.png,A,13.0,515565.0,1.206,arrowdown,arrowup,1
qbb6xqvqpv,MullerLyer,0.45,27.0,MullerLyer_27.0000_0.45000.png,A,14.0,517699.0,0.947,arrowup,arrowup,0
qbb6xqvqpv,MullerLyer,0.30447,27.0,MullerLyer_27.0000_0.30447.png,A,15.0,519387.0,3.826,arrowup,arrowup,0
qbb6xqvqpv,MullerLyer,0.08716,-3.0,MullerLyer_-3.0000_0.08716.png,A,16.0,524033.0,0.799,arrowup,arrowup,0
qbb6xqvqpv,MullerLyer,-0.18509,-27.0,MullerLyer_-27.000_-0.18509.png,A,17.0,525703.0,0.757,arrowdown,arrowdown,0
qbb6xqvqpv,MullerLyer,-0.08716,27.0,MullerLyer_27.0000_-0.08716.png,A,18.0,527207.0,0.73,arrowup,arrowdown,1
qbb6xqvqpv,MullerLyer,0.08716,3.0,MullerLyer_3.00000_0.08716.png,A,19.0,528675.0,1.08,arrowup,arrowup,0
qbb6xqvqpv,MullerLyer,0.18509,9.0,MullerLyer_9.00000_0.18509.png,A,20.0,530736.0,1.534,arrowup,arrowup,0
qbb6xqvqpv,MullerLyer,-0.18509,9.0,MullerLyer_9.00000_-0.18509.png,A,21.0,533294.0,1.245,arrowdown,arrowdown,0
qbb6xqvqpv,MullerLyer,-0.18509,-9.0,MullerLyer_-9.0000_-0.18509.png,A,22.0,535295.0,1.425,arrowup,arrowdown,1
qbb6xqvqpv,MullerLyer,0.18509,-3.0,MullerLyer_-3.0000_0.18509.png,A,23.0,537497.0,0.628,arrowup,arrowup,0
qbb6xqvqpv,MullerLyer,0.45,-9.0,MullerLyer_-9.0000_0.45000.png,A,24.0,539203.0,0.654,arrowup,arrowup,0
qbb6xqvqpv,MullerLyer,0.18509,-9.0,MullerLyer_-9.0000_0.18509.png,A,25.0,540919.0,0.689,arrowup,arrowup,0
qbb6xqvqpv,MullerLyer,-0.18509,3.0,MullerLyer_3.00000_-0.18509.png,A,26.0,542592.0,0.856,arrowdown,arrowdown,0
qbb6xqvqpv,MullerLyer,0.30447,-27.0,MullerLyer_-27.000_0.30447.png,A,27.0,544334.0,0.516,arrowup,arrowup,0
qbb6xqvqpv,MullerLyer,0.08716,15.0,MullerLyer_15.0000_0.08716.png,A,28.0,545607.0,1.051,arrowdown,arrowup,1
qbb6xqvqpv,MullerLyer,-0.30447,-21.0,MullerLyer_-21.000_-0.30447.png,A,29.0,547762.0,0.665,arrowdown,arrowdown,0
qbb6xqvqpv,MullerLyer,-0.30447,21.0,MullerLyer_21.0000_-0.30447.png,A,30.0,549293.0,3.107,arrowdown,arrowdown,0
qbb6xqvqpv,MullerLyer,-0.18509,21.0,MullerLyer_21.0000_-0.18509.png,A,31.0,553376.0,1.216,arrowup,arrowdown,1
qbb6xqvqpv,MullerLyer,0.30447,-9.0,MullerLyer_-9.0000_0.30447.png,A,32.0,555671.0,0.599,arrowup,arrowup,0
qbb6xqvqpv,MullerLyer,-0.45,-15.0,MullerLyer_-15.000_-0.4500.png,A,33.0,557219.0,0.597,arrowdown,arrowdown,0
qbb6xqvqpv,MullerLyer,0.08716,-9.0,MullerLyer_-9.0000_0.08716.png,A,34.0,558438.0,0.761,arrowup,arrowup,0
qbb6xqvqpv,MullerLyer,0.30447,-15.0,MullerLyer_-15.000_0.30447.png,A,35.0,560014.0,0.564,arrowup,arrowup,0
qbb6xqvqpv,MullerLyer,0.45,-15.0,MullerLyer_-15.000_0.45000.png,A,36.0,561548.0,0.472,arrowup,arrowup,0
qbb6xqvqpv,MullerLyer,-0.08716,15.0,MullerLyer_15.0000_-0.08716.png,A,37.0,562833.0,1.997,arrowup,arrowdown,1
qbb6xqvqpv,MullerLyer,0.30447,-21.0,MullerLyer_-21.000_0.30447.png,A,38.0,565782.0,0.828,arrowup,arrowup,0
qbb6xqvqpv,MullerLyer,0.45,-3.0,MullerLyer_-3.0000_0.45000.png,A,39.0,567489.0,0.513,arrowup,arrowup,0
qbb6xqvqpv,MullerLyer,0.30447,-3.0,MullerLyer_-3.0000_0.30447.png,A,40.0,568645.0,0.731,arrowup,arrowup,0
qbb6xqvqpv,MullerLyer,0.45,3.0,MullerLyer_3.00000_0.45000.png,A,41.0,570328.0,0.669,arrowup,arrowup,0
qbb6xqvqpv,MullerLyer,0.30447,9.0,MullerLyer_9.00000_0.30447.png,A,42.0,571862.0,0.899,arrowup,arrowup,0
qbb6xqvqpv,MullerLyer,0.45,15.0,MullerLyer_15.0000_0.45000.png,A,43.0,573795.0,0.772,arrowup,arrowup,0
qbb6xqvqpv,MullerLyer,-0.18509,-3.0,MullerLyer_-3.0000_-0.18509.png,A,44.0,575436.0,0.806,arrowdown,arrowdown,0
qbb6xqvqpv,MullerLyer,0.08716,21.0,MullerLyer_21.0000_0.08716.png,A,45.0,576871.0,1.45,arrowdown,arrowup,1
qbb6xqvqpv,MullerLyer,-0.45,3.0,MullerLyer_3.00000_-0.4500.png,A,46.0,579338.0,0.543,arrowdown,arrowdown,0
qbb6xqvqpv,MullerLyer,-0.45,15.0,MullerLyer_15.0000_-0.4500.png,A,47.0,580549.0,0.571,arrowdown,arrowdown,0
qbb6xqvqpv,MullerLyer,-0.08716,21.0,MullerLyer_21.0000_-0.08716.png,A,48.0,581833.0,0.86,arrowup,arrowdown,1
qbb6xqvqpv,MullerLyer,-0.45,21.0,MullerLyer_21.0000_-0.4500.png,A,49.0,583773.0,0.791,arrowdown,arrowdown,0
qbb6xqvqpv,MullerLyer,0.30447,15.0,MullerLyer_15.0000_0.30447.png,A,50.0,585383.0,0.847,arrowup,arrowup,0
qbb6xqvqpv,MullerLyer,0.08716,27.0,MullerLyer_27.0000_0.08716.png,A,51.0,587332.0,0.819,arrowdown,arrowup,1
qbb6xqvqpv,MullerLyer,0.18509,3.0,MullerLyer_3.00000_0.18509.png,A,52.0,588817.0,0.77,arrowup,arrowup,0
qbb6xqvqpv,MullerLyer,0.30447,3.0,MullerLyer_3.00000_0.30447.png,A,53.0,590365.0,0.723,arrowup,arrowup,0
qbb6xqvqpv,MullerLyer,0.30447,21.0,MullerLyer_21.0000_0.30447.png,A,54.0,591789.0,1.369,arrowup,arrowup,0
qbb6xqvqpv,MullerLyer,0.08716,9.0,MullerLyer_9.00000_0.08716.png,A,55.0,594257.0,2.096,arrowdown,arrowup,1
qbb6xqvqpv,MullerLyer,0.08716,-15.0,MullerLyer_-15.000_0.08716.png,A,56.0,597402.0,1.448,arrowup,arrowup,0
qbb6xqvqpv,MullerLyer,0.45,-27.0,MullerLyer_-27.000_0.45000.png,A,57.0,599837.0,0.98,arrowup,arrowup,0
qbb6xqvqpv,MullerLyer,-0.08716,-9.0,MullerLyer_-9.0000_-0.08716.png,A,58.0,601521.0,0.79,arrowdown,arrowdown,0
qbb6xqvqpv,MullerLyer,0.18509,27.0,MullerLyer_27.0000_0.18509.png,A,59.0,602928.0,1.535,arrowdown,arrowup,1
qbb6xqvqpv,MullerLyer,-0.08716,-15.0,MullerLyer_-15.000_-0.08716.png,A,60.0,605304.0,1.086,arrowdown,arrowdown,0
qbb6xqvqpv,MullerLyer,0.18509,-15.0,MullerLyer_-15.000_0.18509.png,A,61.0,607364.0,0.904,arrowup,arrowup,0
qbb6xqvqpv,MullerLyer,-0.30447,27.0,MullerLyer_27.0000_-0.30447.png,A,62.0,609207.0,2.391,arrowdown,arrowdown,0
qbb6xqvqpv,MullerLyer,0.45,-21.0,MullerLyer_-21.000_0.45000.png,A,63.0,612377.0,0.494,arrowup,arrowup,0
qbb6xqvqpv,MullerLyer,-0.30447,-15.0,MullerLyer_-15.000_-0.30447.png,A,64.0,613891.0,0.501,arrowdown,arrowdown,0
qbb6xqvqpv,MullerLyer,0.18509,-21.0,MullerLyer_-21.000_0.18509.png,A,65.0,615123.0,0.778,arrowup,arrowup,0
qbb6xqvqpv,MullerLyer,-0.30447,9.0,MullerLyer_9.00000_-0.30447.png,A,66.0,616636.0,0.903,arrowdown,arrowdown,0
qbb6xqvqpv,MullerLyer,-0.08716,-27.0,MullerLyer_-27.000_-0.08716.png,A,67.0,618611.0,0.816,arrowdown,arrowdown,0
qbb6xqvqpv,MullerLyer,0.08716,-21.0,MullerLyer_-21.000_0.08716.png,A,68.0,620332.0,0.817,arrowup,arrowup,0
qbb6xqvqpv,MullerLyer,-0.08716,9.0,MullerLyer_9.00000_-0.08716.png,A,69.0,621900.0,2.179,arrowdown,arrowdown,0
qbb6xqvqpv,MullerLyer,-0.45,-3.0,MullerLyer_-3.0000_-0.4500.png,A,70.0,624821.0,0.628,arrowdown,arrowdown,0
qbb6xqvqpv,MullerLyer,-0.08716,-21.0,MullerLyer_-21.000_-0.08716.png,A,71.0,626088.0,1.063,arrowdown,arrowdown,0
qbb6xqvqpv,MullerLyer,-0.30447,-27.0,MullerLyer_-27.000_-0.30447.png,A,72.0,627787.0,0.588,arrowdown,arrowdown,0
qbb6xqvqpv,MullerLyer,-0.30447,-9.0,MullerLyer_-9.0000_-0.30447.png,A,73.0,629482.0,0.515,arrowdown,arrowdown,0
qbb6xqvqpv,MullerLyer,-0.30447,15.0,MullerLyer_15.0000_-0.30447.png,A,74.0,630727.0,0.991,arrowdown,arrowdown,0
qbb6xqvqpv,MullerLyer,0.08716,-27.0,MullerLyer_-27.000_0.08716.png,A,75.0,632489.0,0.583,arrowup,arrowup,0
qbb6xqvqpv,MullerLyer,-0.45,-9.0,MullerLyer_-9.0000_-0.4500.png,A,76.0,634085.0,0.52,arrowdown,arrowdown,0
qbb6xqvqpv,MullerLyer,-0.30447,3.0,MullerLyer_3.00000_-0.30447.png,A,77.0,635446.0,0.566,arrowdown,arrowdown,0
qbb6xqvqpv,MullerLyer,0.18509,-27.0,MullerLyer_-27.000_0.18509.png,A,78.0,636792.0,0.541,arrowup,arrowup,0
qbb6xqvqpv,MullerLyer,-0.45,9.0,MullerLyer_9.00000_-0.4500.png,A,79.0,638210.0,0.514,arrowdown,arrowdown,0
qbb6xqvqpv,MullerLyer,-0.08716,-3.0,MullerLyer_-3.0000_-0.08716.png,A,80.0,639610.0,0.827,arrowdown,arrowdown,0
qbb6xqvqpv,Ebbinghaus,0.09684,0.45,Ebbinghaus_0.45000_0.09684.png,A,1.0,661328.0,1.824,arrowleft,arrowleft,0
qbb6xqvqpv,Ebbinghaus,-0.3383,-0.45,Ebbinghaus_-0.4500_-0.3383.png,A,2.0,663932.0,0.965,arrowright,arrowright,0
qbb6xqvqpv,Ebbinghaus,0.09684,0.15,Ebbinghaus_0.15000_0.09684.png,A,3.0,665795.0,1.689,arrowleft,arrowleft,0
qbb6xqvqpv,Ebbinghaus,-0.09684,0.75,Ebbinghaus_0.75000_-0.09684.png,A,4.0,668592.0,2.391,arrowleft,arrowright,1
qbb6xqvqpv,Ebbinghaus,0.09684,1.35,Ebbinghaus_1.35000_0.09684.png,A,5.0,671979.0,4.415,arrowright,arrowleft,1
qbb6xqvqpv,Ebbinghaus,0.20566,-0.15,Ebbinghaus_-0.1500_0.20566.png,A,6.0,677311.0,0.757,arrowleft,arrowleft,0
qbb6xqvqpv,Ebbinghaus,0.3383,1.05,Ebbinghaus_1.05000_0.33830.png,A,7.0,678726.0,1.325,arrowleft,arrowleft,0
qbb6xqvqpv,Ebbinghaus,-0.09684,1.05,Ebbinghaus_1.05000_-0.09684.png,A,8.0,681055.0,1.456,arrowleft,arrowright,1
qbb6xqvqpv,Ebbinghaus,-0.3383,0.75,Ebbinghaus_0.75000_-0.3383.png,A,9.0,683130.0,4.343,arrowright,arrowright,0
qbb6xqvqpv,Ebbinghaus,-0.5,0.45,Ebbinghaus_0.45000_-0.5000.png,A,10.0,688356.0,1.612,arrowright,arrowright,0
qbb6xqvqpv,Ebbinghaus,0.20566,-0.45,Ebbinghaus_-0.4500_0.20566.png,A,11.0,690686.0,0.875,arrowleft,arrowleft,0
qbb6xqvqpv,Ebbinghaus,0.09684,-0.75,Ebbinghaus_-0.7500_0.09684.png,A,12.0,692376.0,2.691,arrowleft,arrowleft,0
qbb6xqvqpv,Ebbinghaus,-0.20566,0.45,Ebbinghaus_0.45000_-0.20566.png,A,13.0,695906.0,1.543,arrowright,arrowright,0
qbb6xqvqpv,Ebbinghaus,0.3383,1.35,Ebbinghaus_1.35000_0.33830.png,A,14.0,698447.0,2.215,arrowleft,arrowleft,0
qbb6xqvqpv,Ebbinghaus,0.5,1.05,Ebbinghaus_1.05000_0.50000.png,A,15.0,701402.0,1.328,arrowleft,arrowleft,0
qbb6xqvqpv,Ebbinghaus,-0.5,-0.75,Ebbinghaus_-0.7500_-0.5000.png,A,16.0,703465.0,0.847,arrowright,arrowright,0
qbb6xqvqpv,Ebbinghaus,0.3383,0.15,Ebbinghaus_0.15000_0.33830.png,A,17.0,705217.0,1.335,arrowleft,arrowleft,0
qbb6xqvqpv,Ebbinghaus,-0.09684,-1.35,Ebbinghaus_-1.3500_-0.09684.png,A,18.0,707513.0,1.021,arrowright,arrowright,0
qbb6xqvqpv,Ebbinghaus,0.09684,-0.15,Ebbinghaus_-0.1500_0.09684.png,A,19.0,709199.0,1.029,arrowleft,arrowleft,0
qbb6xqvqpv,Ebbinghaus,0.5,0.45,Ebbinghaus_0.45000_0.50000.png,A,20.0,710974.0,0.787,arrowleft,arrowleft,0
qbb6xqvqpv,Ebbinghaus,-0.20566,1.05,Ebbinghaus_1.05000_-0.20566.png,A,21.0,712490.0,3.377,arrowright,arrowright,0
qbb6xqvqpv,Ebbinghaus,-0.5,-1.35,Ebbinghaus_-1.3500_-0.5000.png,A,22.0,716765.0,1.036,arrowright,arrowright,0
qbb6xqvqpv,Ebbinghaus,0.5,-0.15,Ebbinghaus_-0.1500_0.50000.png,A,23.0,718449.0,1.18,arrowleft,arrowleft,0
qbb6xqvqpv,Ebbinghaus,-0.09684,0.15,Ebbinghaus_0.15000_-0.09684.png,A,24.0,720705.0,2.054,arrowright,arrowright,0
qbb6xqvqpv,Ebbinghaus,0.09684,1.05,Ebbinghaus_1.05000_0.09684.png,A,25.0,723827.0,2.642,arrowright,arrowleft,1
qbb6xqvqpv,Ebbinghaus,0.20566,-0.75,Ebbinghaus_-0.7500_0.20566.png,A,26.0,727262.0,0.691,arrowleft,arrowleft,0
qbb6xqvqpv,Ebbinghaus,-0.3383,-1.05,Ebbinghaus_-1.0500_-0.3383.png,A,27.0,728742.0,0.665,arrowright,arrowright,0
qbb6xqvqpv,Ebbinghaus,0.3383,-0.75,Ebbinghaus_-0.7500_0.33830.png,A,28.0,730494.0,0.616,arrowleft,arrowleft,0
qbb6xqvqpv,Ebbinghaus,-0.3383,-1.35,Ebbinghaus_-1.3500_-0.3383.png,A,29.0,732044.0,0.58,arrowright,arrowright,0
qbb6xqvqpv,Ebbinghaus,-0.3383,1.05,Ebbinghaus_1.05000_-0.3383.png,A,30.0,733520.0,1.583,arrowright,arrowright,0
qbb6xqvqpv,Ebbinghaus,-0.20566,1.35,Ebbinghaus_1.35000_-0.20566.png,A,31.0,736205.0,0.72,arrowleft,arrowright,1
qbb6xqvqpv,Ebbinghaus,-0.09684,-0.45,Ebbinghaus_-0.4500_-0.09684.png,A,32.0,737675.0,0.664,arrowright,arrowright,0
qbb6xqvqpv,Ebbinghaus,-0.3383,1.35,Ebbinghaus_1.35000_-0.3383.png,A,33.0,739110.0,3.816,arrowright,arrowright,0
qbb6xqvqpv,Ebbinghaus,0.09684,-0.45,Ebbinghaus_-0.4500_0.09684.png,A,34.0,743635.0,2.314,arrowleft,arrowleft,0
qbb6xqvqpv,Ebbinghaus,-0.3383,0.15,Ebbinghaus_0.15000_-0.3383.png,A,35.0,746792.0,0.843,arrowright,arrowright,0
qbb6xqvqpv,Ebbinghaus,-0.09684,0.45,Ebbinghaus_0.45000_-0.09684.png,A,36.0,748282.0,2.98,arrowleft,arrowright,1
qbb6xqvqpv,Ebbinghaus,0.20566,0.45,Ebbinghaus_0.45000_0.20566.png,A,37.0,752270.0,1.084,arrowleft,arrowleft,0
qbb6xqvqpv,Ebbinghaus,0.5,-1.05,Ebbinghaus_-1.0500_0.50000.png,A,38.0,754005.0,0.721,arrowleft,arrowleft,0
qbb6xqvqpv,Ebbinghaus,-0.5,-1.05,Ebbinghaus_-1.0500_-0.5000.png,A,39.0,755492.0,0.733,arrowright,arrowright,0
qbb6xqvqpv,Ebbinghaus,0.3383,0.45,Ebbinghaus_0.45000_0.33830.png,A,40.0,757206.0,1.627,arrowleft,arrowleft,0
qbb6xqvqpv,Ebbinghaus,0.5,-1.35,Ebbinghaus_-1.3500_0.50000.png,A,41.0,759792.0,1.144,arrowleft,arrowleft,0
qbb6xqvqpv,Ebbinghaus,-0.5,1.35,Ebbinghaus_1.35000_-0.5000.png,A,42.0,762045.0,0.952,arrowright,arrowright,0
qbb6xqvqpv,Ebbinghaus,-0.09684,-0.75,Ebbinghaus_-0.7500_-0.09684.png,A,43.0,764057.0,1.768,arrowright,arrowright,0
qbb6xqvqpv,Ebbinghaus,-0.20566,-0.15,Ebbinghaus_-0.1500_-0.20566.png,A,44.0,766625.0,0.77,arrowright,arrowright,0
qbb6xqvqpv,Ebbinghaus,-0.20566,-0.45,Ebbinghaus_-0.4500_-0.20566.png,A,45.0,768203.0,0.716,arrowright,arrowright,0
qbb6xqvqpv,Ebbinghaus,0.3383,-1.05,Ebbinghaus_-1.0500_0.33830.png,A,46.0,769950.0,0.681,arrowleft,arrowleft,0
qbb6xqvqpv,Ebbinghaus,-0.20566,-1.35,Ebbinghaus_-1.3500_-0.20566.png,A,47.0,771453.0,0.622,arrowright,arrowright,0
qbb6xqvqpv,Ebbinghaus,-0.3383,-0.15,Ebbinghaus_-0.1500_-0.3383.png,A,48.0,772978.0,0.763,arrowright,arrowright,0
qbb6xqvqpv,Ebbinghaus,-0.5,-0.15,Ebbinghaus_-0.1500_-0.5000.png,A,49.0,774539.0,0.52,arrowright,arrowright,0
qbb6xqvqpv,Ebbinghaus,0.5,-0.75,Ebbinghaus_-0.7500_0.50000.png,A,50.0,776162.0,0.485,arrowleft,arrowleft,0
qbb6xqvqpv,Ebbinghaus,0.09684,-1.35,Ebbinghaus_-1.3500_0.09684.png,A,51.0,777441.0,1.281,arrowleft,arrowleft,0
qbb6xqvqpv,Ebbinghaus,-0.09684,-0.15,Ebbinghaus_-0.1500_-0.09684.png,A,52.0,779535.0,1.425,arrowright,arrowright,0
qbb6xqvqpv,Ebbinghaus,0.20566,0.15,Ebbinghaus_0.15000_0.20566.png,A,53.0,781692.0,0.718,arrowleft,arrowleft,0
qbb6xqvqpv,Ebbinghaus,0.3383,-0.45,Ebbinghaus_-0.4500_0.33830.png,A,54.0,783423.0,0.804,arrowleft,arrowleft,0
qbb6xqvqpv,Ebbinghaus,0.20566,-1.35,Ebbinghaus_-1.3500_0.20566.png,A,55.0,785204.0,0.895,arrowleft,arrowleft,0
qbb6xqvqpv,Ebbinghaus,0.5,0.75,Ebbinghaus_0.75000_0.50000.png,A,56.0,787082.0,1.603,arrowleft,arrowleft,0
qbb6xqvqpv,Ebbinghaus,0.3383,0.75,Ebbinghaus_0.75000_0.33830.png,A,57.0,789354.0,1.087,arrowleft,arrowleft,0
qbb6xqvqpv,Ebbinghaus,0.5,-0.45,Ebbinghaus_-0.4500_0.50000.png,A,58.0,791106.0,0.671,arrowleft,arrowleft,0
qbb6xqvqpv,Ebbinghaus,0.20566,1.05,Ebbinghaus_1.05000_0.20566.png,A,59.0,792510.0,0.966,arrowright,arrowleft,1
qbb6xqvqpv,Ebbinghaus,0.3383,-1.35,Ebbinghaus_-1.3500_0.33830.png,A,60.0,794482.0,0.657,arrowleft,arrowleft,0
qbb6xqvqpv,Ebbinghaus,-0.3383,-0.75,Ebbinghaus_-0.7500_-0.3383.png,A,61.0,795953.0,0.556,arrowright,arrowright,0
qbb6xqvqpv,Ebbinghaus,0.5,1.35,Ebbinghaus_1.35000_0.50000.png,A,62.0,797185.0,0.797,arrowleft,arrowleft,0
qbb6xqvqpv,Ebbinghaus,-0.20566,-1.05,Ebbinghaus_-1.0500_-0.20566.png,A,63.0,798998.0,0.654,arrowright,arrowright,0
qbb6xqvqpv,Ebbinghaus,-0.20566,0.75,Ebbinghaus_0.75000_-0.20566.png,A,64.0,800286.0,1.08,arrowright,arrowright,0
qbb6xqvqpv,Ebbinghaus,-0.09684,-1.05,Ebbinghaus_-1.0500_-0.09684.png,A,65.0,802319.0,0.678,arrowright,arrowright,0
qbb6xqvqpv,Ebbinghaus,-0.5,1.05,Ebbinghaus_1.05000_-0.5000.png,A,66.0,803886.0,0.767,arrowright,arrowright,0
qbb6xqvqpv,Ebbinghaus,0.09684,0.75,Ebbinghaus_0.75000_0.09684.png,A,67.0,805269.0,1.532,arrowleft,arrowleft,0
qbb6xqvqpv,Ebbinghaus,0.20566,0.75,Ebbinghaus_0.75000_0.20566.png,A,68.0,807871.0,1.996,arrowleft,arrowleft,0
qbb6xqvqpv,Ebbinghaus,-0.5,0.15,Ebbinghaus_0.15000_-0.5000.png,A,69.0,810634.0,0.724,arrowright,arrowright,0
qbb6xqvqpv,Ebbinghaus,0.09684,-1.05,Ebbinghaus_-1.0500_0.09684.png,A,70.0,812352.0,0.883,arrowleft,arrowleft,0
qbb6xqvqpv,Ebbinghaus,-0.5,-0.45,Ebbinghaus_-0.4500_-0.5000.png,A,71.0,814192.0,0.769,arrowright,arrowright,0
qbb6xqvqpv,Ebbinghaus,0.20566,-1.05,Ebbinghaus_-1.0500_0.20566.png,A,72.0,815750.0,0.663,arrowleft,arrowleft,0
qbb6xqvqpv,Ebbinghaus,-0.5,0.75,Ebbinghaus_0.75000_-0.5000.png,A,73.0,817482.0,0.769,arrowright,arrowright,0
qbb6xqvqpv,Ebbinghaus,-0.20566,0.15,Ebbinghaus_0.15000_-0.20566.png,A,74.0,818987.0,2.936,arrowright,arrowright,0
qbb6xqvqpv,Ebbinghaus,-0.20566,-0.75,Ebbinghaus_-0.7500_-0.20566.png,A,75.0,822718.0,1.357,arrowright,arrowright,0
qbb6xqvqpv,Ebbinghaus,-0.09684,1.35,Ebbinghaus_1.35000_-0.09684.png,A,76.0,824682.0,2.415,arrowleft,arrowright,1
qbb6xqvqpv,Ebbinghaus,-0.3383,0.45,Ebbinghaus_0.45000_-0.3383.png,A,77.0,828180.0,1.025,arrowright,arrowright,0
qbb6xqvqpv,Ebbinghaus,0.20566,1.35,Ebbinghaus_1.35000_0.20566.png,A,78.0,829865.0,0.82,arrowright,arrowleft,1
qbb6xqvqpv,Ebbinghaus,0.5,0.15,Ebbinghaus_0.15000_0.50000.png,A,79.0,831723.0,3.353,arrowleft,arrowleft,0
qbb6xqvqpv,Ebbinghaus,0.3383,-0.15,Ebbinghaus_-0.1500_0.33830.png,A,80.0,835917.0,0.737,arrowleft,arrowleft,0
qbb6xqvqpv,VerticalHorizontal,0.20298,40.5,VerticalHorizontal_40.5000_0.20298.png,A,1.0,849171.0,3.262,arrowleft,arrowleft,0
qbb6xqvqpv,VerticalHorizontal,-0.20298,22.5,VerticalHorizontal_22.5000_-0.20298.png,A,2.0,853280.0,0.987,arrowright,arrowright,0
qbb6xqvqpv,VerticalHorizontal,-0.0581,40.5,VerticalHorizontal_40.5000_-0.0581.png,A,3.0,854908.0,4.587,arrowleft,arrowright,1
qbb6xqvqpv,VerticalHorizontal,0.20298,-4.5,VerticalHorizontal_-4.5000_0.20298.png,A,4.0,860350.0,0.617,arrowleft,arrowleft,0
qbb6xqvqpv,VerticalHorizontal,0.3,-13.5,VerticalHorizontal_-13.500_0.30000.png,A,5.0,862039.0,0.542,arrowleft,arrowleft,0
qbb6xqvqpv,VerticalHorizontal,-0.12339,-4.5,VerticalHorizontal_-4.5000_-0.12339.png,A,6.0,863425.0,0.523,arrowright,arrowright,0
qbb6xqvqpv,VerticalHorizontal,-0.3,31.5,VerticalHorizontal_31.5000_-0.3000.png,A,7.0,864859.0,0.59,arrowright,arrowright,0
qbb6xqvqpv,VerticalHorizontal,0.0581,13.5,VerticalHorizontal_13.5000_0.05810.png,A,8.0,866237.0,2.608,arrowleft,arrowleft,0
qbb6xqvqpv,VerticalHorizontal,0.12339,-31.5,VerticalHorizontal_-31.500_0.12339.png,A,9.0,869901.0,1.168,arrowleft,arrowleft,0
qbb6xqvqpv,VerticalHorizontal,-0.0581,22.5,VerticalHorizontal_22.5000_-0.0581.png,A,10.0,871749.0,0.793,arrowright,arrowright,0
qbb6xqvqpv,VerticalHorizontal,-0.0581,-22.5,VerticalHorizontal_-22.500_-0.0581.png,A,11.0,873528.0,0.672,arrowright,arrowright,0
qbb6xqvqpv,VerticalHorizontal,-0.0581,-31.5,VerticalHorizontal_-31.500_-0.0581.png,A,12.0,875218.0,0.816,arrowright,arrowright,0
qbb6xqvqpv,VerticalHorizontal,-0.12339,40.5,VerticalHorizontal_40.5000_-0.12339.png,A,13.0,877026.0,1.357,arrowleft,arrowright,1
qbb6xqvqpv,VerticalHorizontal,0.3,4.5,VerticalHorizontal_4.50000_0.30000.png,A,14.0,879443.0,0.652,arrowleft,arrowleft,0
qbb6xqvqpv,VerticalHorizontal,0.0581,-22.5,VerticalHorizontal_-22.500_0.05810.png,A,15.0,881147.0,1.431,arrowleft,arrowleft,0
qbb6xqvqpv,VerticalHorizontal,0.3,13.5,VerticalHorizontal_13.5000_0.30000.png,A,16.0,883269.0,0.8,arrowleft,arrowleft,0
qbb6xqvqpv,VerticalHorizontal,-0.12339,4.5,VerticalHorizontal_4.50000_-0.12339.png,A,17.0,884726.0,1.075,arrowright,arrowright,0
qbb6xqvqpv,VerticalHorizontal,-0.3,13.5,VerticalHorizontal_13.5000_-0.3000.png,A,18.0,886828.0,0.571,arrowright,arrowright,0
qbb6xqvqpv,VerticalHorizontal,-0.20298,4.5,VerticalHorizontal_4.50000_-0.20298.png,A,19.0,888264.0,0.897,arrowright,arrowright,0
qbb6xqvqpv,VerticalHorizontal,0.20298,13.5,VerticalHorizontal_13.5000_0.20298.png,A,20.0,889971.0,0.605,arrowleft,arrowleft,0
qbb6xqvqpv,VerticalHorizontal,0.20298,-22.5,VerticalHorizontal_-22.500_0.20298.png,A,21.0,891424.0,0.559,arrowleft,arrowleft,0
qbb6xqvqpv,VerticalHorizontal,-0.3,22.5,VerticalHorizontal_22.5000_-0.3000.png,A,22.0,892758.0,0.555,arrowright,arrowright,0
qbb6xqvqpv,VerticalHorizontal,-0.20298,-31.5,VerticalHorizontal_-31.500_-0.20298.png,A,23.0,894385.0,0.662,arrowright,arrowright,0
qbb6xqvqpv,VerticalHorizontal,-0.0581,4.5,VerticalHorizontal_4.50000_-0.0581.png,A,24.0,895993.0,1.134,arrowright,arrowright,0
qbb6xqvqpv,VerticalHorizontal,0.12339,-4.5,VerticalHorizontal_-4.5000_0.12339.png,A,25.0,897900.0,0.586,arrowleft,arrowleft,0
qbb6xqvqpv,VerticalHorizontal,-0.0581,-13.5,VerticalHorizontal_-13.500_-0.0581.png,A,26.0,899258.0,0.61,arrowright,arrowright,0
qbb6xqvqpv,VerticalHorizontal,-0.3,-40.5,VerticalHorizontal_-40.500_-0.3000.png,A,27.0,900622.0,0.455,arrowright,arrowright,0
qbb6xqvqpv,VerticalHorizontal,0.3,-31.5,VerticalHorizontal_-31.500_0.30000.png,A,28.0,901769.0,0.495,arrowleft,arrowleft,0
qbb6xqvqpv,VerticalHorizontal,-0.3,4.5,VerticalHorizontal_4.50000_-0.3000.png,A,29.0,903322.0,0.445,arrowright,arrowright,0
qbb6xqvqpv,VerticalHorizontal,0.3,-4.5,VerticalHorizontal_-4.5000_0.30000.png,A,30.0,904763.0,0.572,arrowleft,arrowleft,0
qbb6xqvqpv,VerticalHorizontal,-0.3,-4.5,VerticalHorizontal_-4.5000_-0.3000.png,A,31.0,906387.0,0.471,arrowright,arrowright,0
qbb6xqvqpv,VerticalHorizontal,-0.12339,-40.5,VerticalHorizontal_-40.500_-0.12339.png,A,32.0,907851.0,0.692,arrowright,arrowright,0
qbb6xqvqpv,VerticalHorizontal,-0.20298,40.5,VerticalHorizontal_40.5000_-0.20298.png,A,33.0,909510.0,1.548,arrowright,arrowright,0
qbb6xqvqpv,VerticalHorizontal,-0.12339,13.5,VerticalHorizontal_13.5000_-0.12339.png,A,34.0,911744.0,0.863,arrowright,arrowright,0
qbb6xqvqpv,VerticalHorizontal,0.20298,-40.5,VerticalHorizontal_-40.500_0.20298.png,A,35.0,913648.0,0.538,arrowleft,arrowleft,0
qbb6xqvqpv,VerticalHorizontal,-0.0581,-4.5,VerticalHorizontal_-4.5000_-0.0581.png,A,36.0,914996.0,1.979,arrowright,arrowright,0
qbb6xqvqpv,VerticalHorizontal,-0.3,-31.5,VerticalHorizontal_-31.500_-0.3000.png,A,37.0,917963.0,0.56,arrowright,arrowright,0
qbb6xqvqpv,VerticalHorizontal,-0.12339,-22.5,VerticalHorizontal_-22.500_-0.12339.png,A,38.0,919177.0,1.219,arrowright,arrowright,0
qbb6xqvqpv,VerticalHorizontal,-0.3,-22.5,VerticalHorizontal_-22.500_-0.3000.png,A,39.0,921290.0,0.619,arrowright,arrowright,0
qbb6xqvqpv,VerticalHorizontal,-0.12339,-13.5,VerticalHorizontal_-13.500_-0.12339.png,A,40.0,922999.0,0.968,arrowright,arrowright,0
qbb6xqvqpv,VerticalHorizontal,0.12339,31.5,VerticalHorizontal_31.5000_0.12339.png,A,41.0,925017.0,2.117,arrowleft,arrowleft,0
qbb6xqvqpv,VerticalHorizontal,-0.12339,31.5,VerticalHorizontal_31.5000_-0.12339.png,A,42.0,928209.0,2.65,arrowright,arrowright,0
qbb6xqvqpv,VerticalHorizontal,0.20298,22.5,VerticalHorizontal_22.5000_0.20298.png,A,43.0,931867.0,0.876,arrowleft,arrowleft,0
qbb6xqvqpv,VerticalHorizontal,-0.20298,31.5,VerticalHorizontal_31.5000_-0.20298.png,A,44.0,933566.0,0.612,arrowright,arrowright,0
qbb6xqvqpv,VerticalHorizontal,0.20298,-13.5,VerticalHorizontal_-13.500_0.20298.png,A,45.0,935284.0,0.535,arrowleft,arrowleft,0
qbb6xqvqpv,VerticalHorizontal,-0.12339,22.5,VerticalHorizontal_22.5000_-0.12339.png,A,46.0,936552.0,0.89,arrowright,arrowright,0
qbb6xqvqpv,VerticalHorizontal,0.3,22.5,VerticalHorizontal_22.5000_0.30000.png,A,47.0,938200.0,0.556,arrowleft,arrowleft,0
qbb6xqvqpv,VerticalHorizontal,-0.3,-13.5,VerticalHorizontal_-13.500_-0.3000.png,A,48.0,939763.0,0.491,arrowright,arrowright,0
qbb6xqvqpv,VerticalHorizontal,-0.0581,13.5,VerticalHorizontal_13.5000_-0.0581.png,A,49.0,941352.0,1.55,arrowright,arrowright,0
qbb6xqvqpv,VerticalHorizontal,0.3,31.5,VerticalHorizontal_31.5000_0.30000.png,A,50.0,943882.0,0.559,arrowleft,arrowleft,0
qbb6xqvqpv,VerticalHorizontal,0.12339,40.5,VerticalHorizontal_40.5000_0.12339.png,A,51.0,945080.0,2.318,arrowleft,arrowleft,0
qbb6xqvqpv,VerticalHorizontal,0.20298,-31.5,VerticalHorizontal_-31.500_0.20298.png,A,52.0,948308.0,0.433,arrowleft,arrowleft,0
qbb6xqvqpv,VerticalHorizontal,0.20298,4.5,VerticalHorizontal_4.50000_0.20298.png,A,53.0,949619.0,0.585,arrowleft,arrowleft,0
qbb6xqvqpv,VerticalHorizontal,-0.0581,-40.5,VerticalHorizontal_-40.500_-0.0581.png,A,54.0,951232.0,0.512,arrowright,arrowright,0
qbb6xqvqpv,VerticalHorizontal,0.0581,31.5,VerticalHorizontal_31.5000_0.05810.png,A,55.0,952820.0,0.827,arrowright,arrowleft,1
qbb6xqvqpv,VerticalHorizontal,0.0581,-40.5,VerticalHorizontal_-40.500_0.05810.png,A,56.0,954584.0,0.715,arrowleft,arrowleft,0
qbb6xqvqpv,VerticalHorizontal,-0.20298,-40.5,VerticalHorizontal_-40.500_-0.20298.png,A,57.0,955942.0,0.49,arrowright,arrowright,0
qbb6xqvqpv,VerticalHorizontal,0.12339,13.5,VerticalHorizontal_13.5000_0.12339.png,A,58.0,957409.0,0.737,arrowleft,arrowleft,0
qbb6xqvqpv,VerticalHorizontal,0.0581,-4.5,VerticalHorizontal_-4.5000_0.05810.png,A,59.0,958789.0,1.936,arrowleft,arrowleft,0
qbb6xqvqpv,VerticalHorizontal,0.0581,-13.5,VerticalHorizontal_-13.500_0.05810.png,A,60.0,961357.0,1.302,arrowleft,arrowleft,0
qbb6xqvqpv,VerticalHorizontal,0.12339,-40.5,VerticalHorizontal_-40.500_0.12339.png,A,61.0,963429.0,0.548,arrowleft,arrowleft,0
qbb6xqvqpv,VerticalHorizontal,-0.20298,13.5,VerticalHorizontal_13.5000_-0.20298.png,A,62.0,964972.0,0.592,arrowright,arrowright,0
qbb6xqvqpv,VerticalHorizontal,0.12339,22.5,VerticalHorizontal_22.5000_0.12339.png,A,63.0,966656.0,0.617,arrowleft,arrowleft,0
qbb6xqvqpv,VerticalHorizontal,0.3,40.5,VerticalHorizontal_40.5000_0.30000.png,A,64.0,967889.0,0.545,arrowleft,arrowleft,0
qbb6xqvqpv,VerticalHorizontal,0.12339,-22.5,VerticalHorizontal_-22.500_0.12339.png,A,65.0,969324.0,0.548,arrowleft,arrowleft,0
qbb6xqvqpv,VerticalHorizontal,0.0581,22.5,VerticalHorizontal_22.5000_0.05810.png,A,66.0,970744.0,2.962,arrowleft,arrowleft,0
qbb6xqvqpv,VerticalHorizontal,0.20298,31.5,VerticalHorizontal_31.5000_0.20298.png,A,67.0,974595.0,0.872,arrowleft,arrowleft,0
qbb6xqvqpv,VerticalHorizontal,0.0581,4.5,VerticalHorizontal_4.50000_0.05810.png,A,68.0,976281.0,1.077,arrowleft,arrowleft,0
qbb6xqvqpv,VerticalHorizontal,-0.20298,-22.5,VerticalHorizontal_-22.500_-0.20298.png,A,69.0,978426.0,0.519,arrowright,arrowright,0
qbb6xqvqpv,VerticalHorizontal,0.12339,-13.5,VerticalHorizontal_-13.500_0.12339.png,A,70.0,979699.0,0.495,arrowleft,arrowleft,0
qbb6xqvqpv,VerticalHorizontal,-0.0581,31.5,VerticalHorizontal_31.5000_-0.0581.png,A,71.0,981211.0,1.941,arrowleft,arrowright,1
qbb6xqvqpv,VerticalHorizontal,-0.12339,-31.5,VerticalHorizontal_-31.500_-0.12339.png,A,72.0,983843.0,0.536,arrowright,arrowright,0
qbb6xqvqpv,VerticalHorizontal,-0.3,40.5,VerticalHorizontal_40.5000_-0.3000.png,A,73.0,985290.0,0.662,arrowright,arrowright,0
qbb6xqvqpv,VerticalHorizontal,-0.20298,-13.5,VerticalHorizontal_-13.500_-0.20298.png,A,74.0,986904.0,0.639,arrowright,arrowright,0
qbb6xqvqpv,VerticalHorizontal,0.3,-40.5,VerticalHorizontal_-40.500_0.30000.png,A,75.0,988523.0,0.517,arrowleft,arrowleft,0
qbb6xqvqpv,VerticalHorizontal,0.0581,40.5,VerticalHorizontal_40.5000_0.05810.png,A,76.0,989968.0,3.111,arrowright,arrowleft,1
qbb6xqvqpv,VerticalHorizontal,0.0581,-31.5,VerticalHorizontal_-31.500_0.05810.png,A,77.0,993757.0,0.682,arrowleft,arrowleft,0
qbb6xqvqpv,VerticalHorizontal,-0.20298,-4.5,VerticalHorizontal_-4.5000_-0.20298.png,A,78.0,995275.0,0.508,arrowright,arrowright,0
qbb6xqvqpv,VerticalHorizontal,0.3,-22.5,VerticalHorizontal_-22.500_0.30000.png,A,79.0,996402.0,0.414,arrowleft,arrowleft,0
qbb6xqvqpv,VerticalHorizontal,0.12339,4.5,VerticalHorizontal_4.50000_0.12339.png,A,80.0,997872.0,0.667,arrowleft,arrowleft,0
qbb6xqvqpv,MullerLyer,0.1337,12.0,MullerLyer_12.0000_0.13370.png,B,1.0,1178447.0,2.948,arrowdown,arrowup,1
qbb6xqvqpv,MullerLyer,-0.1337,-18.0,MullerLyer_-18.000_-0.1337.png,B,2.0,1182280.0,0.782,arrowdown,arrowdown,0
qbb6xqvqpv,MullerLyer,-0.045,30.0,MullerLyer_30.0000_-0.0450.png,B,3.0,1184158.0,0.789,arrowup,arrowdown,1
qbb6xqvqpv,MullerLyer,-0.37364,12.0,MullerLyer_12.0000_-0.37364.png,B,4.0,1185706.0,0.917,arrowdown,arrowdown,0
qbb6xqvqpv,MullerLyer,0.24183,24.0,MullerLyer_24.0000_0.24183.png,B,5.0,1187428.0,1.835,arrowup,arrowup,0
qbb6xqvqpv,MullerLyer,0.045,-30.0,MullerLyer_-30.000_0.04500.png,B,6.0,1190133.0,0.668,arrowup,arrowup,0
qbb6xqvqpv,MullerLyer,0.37364,6.0,MullerLyer_6.00000_0.37364.png,B,7.0,1191444.0,0.656,arrowup,arrowup,0
qbb6xqvqpv,MullerLyer,-0.37364,-12.0,MullerLyer_-12.000_-0.37364.png,B,8.0,1192982.0,0.789,arrowdown,arrowdown,0
qbb6xqvqpv,MullerLyer,0.24183,6.0,MullerLyer_6.00000_0.24183.png,B,9.0,1194734.0,1.204,arrowup,arrowup,0
qbb6xqvqpv,MullerLyer,0.37364,24.0,MullerLyer_24.0000_0.37364.png,B,10.0,1196937.0,1.79,arrowup,arrowup,0
qbb6xqvqpv,MullerLyer,-0.37364,18.0,MullerLyer_18.0000_-0.37364.png,B,11.0,1199578.0,0.849,arrowdown,arrowdown,0
qbb6xqvqpv,MullerLyer,-0.045,24.0,MullerLyer_24.0000_-0.0450.png,B,12.0,1201266.0,0.929,arrowup,arrowdown,1
qbb6xqvqpv,MullerLyer,0.37364,-30.0,MullerLyer_-30.000_0.37364.png,B,13.0,1202987.0,0.685,arrowup,arrowup,0
qbb6xqvqpv,MullerLyer,-0.24183,24.0,MullerLyer_24.0000_-0.24183.png,B,14.0,1204461.0,2.707,arrowdown,arrowdown,0
qbb6xqvqpv,MullerLyer,-0.1337,-6.0,MullerLyer_-6.0000_-0.1337.png,B,15.0,1208176.0,0.842,arrowdown,arrowdown,0
qbb6xqvqpv,MullerLyer,-0.37364,30.0,MullerLyer_30.0000_-0.37364.png,B,16.0,1210116.0,2.559,arrowdown,arrowdown,0
qbb6xqvqpv,MullerLyer,0.24183,-24.0,MullerLyer_-24.000_0.24183.png,B,17.0,1213725.0,0.698,arrowup,arrowup,0
qbb6xqvqpv,MullerLyer,-0.045,-18.0,MullerLyer_-18.000_-0.0450.png,B,18.0,1215165.0,0.781,arrowdown,arrowdown,0
qbb6xqvqpv,MullerLyer,-0.24183,12.0,MullerLyer_12.0000_-0.24183.png,B,19.0,1216584.0,0.858,arrowdown,arrowdown,0
qbb6xqvqpv,MullerLyer,0.24183,18.0,MullerLyer_18.0000_0.24183.png,B,20.0,1218301.0,6.141,arrowup,arrowup,0
qbb6xqvqpv,MullerLyer,0.1337,-24.0,MullerLyer_-24.000_0.13370.png,B,21.0,1225087.0,0.663,arrowup,arrowup,0
qbb6xqvqpv,MullerLyer,-0.37364,-24.0,MullerLyer_-24.000_-0.37364.png,B,22.0,1226678.0,0.492,arrowdown,arrowdown,0
qbb6xqvqpv,MullerLyer,0.37364,-24.0,MullerLyer_-24.000_0.37364.png,B,23.0,1228188.0,0.503,arrowup,arrowup,0
qbb6xqvqpv,MullerLyer,0.045,24.0,MullerLyer_24.0000_0.04500.png,B,24.0,1229512.0,0.729,arrowdown,arrowup,1
qbb6xqvqpv,MullerLyer,0.37364,-6.0,MullerLyer_-6.0000_0.37364.png,B,25.0,1231280.0,0.501,arrowup,arrowup,0
qbb6xqvqpv,MullerLyer,-0.1337,-12.0,MullerLyer_-12.000_-0.1337.png,B,26.0,1232574.0,0.489,arrowdown,arrowdown,0
qbb6xqvqpv,MullerLyer,-0.24183,-30.0,MullerLyer_-30.000_-0.24183.png,B,27.0,1233998.0,0.639,arrowdown,arrowdown,0
qbb6xqvqpv,MullerLyer,0.045,6.0,MullerLyer_6.00000_0.04500.png,B,28.0,1235322.0,1.065,arrowdown,arrowup,1
qbb6xqvqpv,MullerLyer,0.045,-6.0,MullerLyer_-6.0000_0.04500.png,B,29.0,1237051.0,1.372,arrowup,arrowup,0
qbb6xqvqpv,MullerLyer,-0.1337,-24.0,MullerLyer_-24.000_-0.1337.png,B,30.0,1239299.0,0.688,arrowdown,arrowdown,0
qbb6xqvqpv,MullerLyer,0.37364,18.0,MullerLyer_18.0000_0.37364.png,B,31.0,1240874.0,0.82,arrowup,arrowup,0
qbb6xqvqpv,MullerLyer,-0.24183,-24.0,MullerLyer_-24.000_-0.24183.png,B,32.0,1242524.0,0.566,arrowdown,arrowdown,0
qbb6xqvqpv,MullerLyer,0.045,12.0,MullerLyer_12.0000_0.04500.png,B,33.0,1243962.0,1.624,arrowdown,arrowup,1
qbb6xqvqpv,MullerLyer,-0.37364,-30.0,MullerLyer_-30.000_-0.37364.png,B,34.0,1246320.0,0.668,arrowdown,arrowdown,0
qbb6xqvqpv,MullerLyer,-0.1337,12.0,MullerLyer_12.0000_-0.1337.png,B,35.0,1247999.0,1.945,arrowup,arrowdown,1
qbb6xqvqpv,MullerLyer,0.1337,-30.0,MullerLyer_-30.000_0.13370.png,B,36.0,1250981.0,0.596,arrowup,arrowup,0
qbb6xqvqpv,MullerLyer,-0.37364,24.0,MullerLyer_24.0000_-0.37364.png,B,37.0,1252607.0,0.795,arrowdown,arrowdown,0
qbb6xqvqpv,MullerLyer,-0.045,-6.0,MullerLyer_-6.0000_-0.0450.png,B,38.0,1254072.0,0.817,arrowdown,arrowdown,0
qbb6xqvqpv,MullerLyer,0.1337,-6.0,MullerLyer_-6.0000_0.13370.png,B,39.0,1255935.0,1.119,arrowup,arrowup,0
qbb6xqvqpv,MullerLyer,0.1337,18.0,MullerLyer_18.0000_0.13370.png,B,40.0,1258002.0,1.308,arrowdown,arrowup,1
qbb6xqvqpv,MullerLyer,-0.045,-12.0,MullerLyer_-12.000_-0.0450.png,B,41.0,1259977.0,0.564,arrowdown,arrowdown,0
qbb6xqvqpv,MullerLyer,-0.24183,18.0,MullerLyer_18.0000_-0.24183.png,B,42.0,1261305.0,2.626,arrowdown,arrowdown,0
qbb6xqvqpv,MullerLyer,-0.045,12.0,MullerLyer_12.0000_-0.0450.png,B,43.0,1264728.0,2.32,arrowup,arrowdown,1
qbb6xqvqpv,MullerLyer,-0.24183,-12.0,MullerLyer_-12.000_-0.24183.png,B,44.0,1268122.0,0.691,arrowdown,arrowdown,0
qbb6xqvqpv,MullerLyer,0.24183,-6.0,MullerLyer_-6.0000_0.24183.png,B,45.0,1269838.0,0.863,arrowup,arrowup,0
qbb6xqvqpv,MullerLyer,0.24183,30.0,MullerLyer_30.0000_0.24183.png,B,46.0,1271682.0,4.049,arrowup,arrowup,0
qbb6xqvqpv,MullerLyer,-0.1337,6.0,MullerLyer_6.00000_-0.1337.png,B,47.0,1276454.0,2.034,arrowdown,arrowdown,0
qbb6xqvqpv,MullerLyer,0.24183,-12.0,MullerLyer_-12.000_0.24183.png,B,48.0,1279265.0,0.691,arrowup,arrowup,0
qbb6xqvqpv,MullerLyer,0.24183,-30.0,MullerLyer_-30.000_0.24183.png,B,49.0,1281011.0,0.588,arrowup,arrowup,0
qbb6xqvqpv,MullerLyer,-0.24183,6.0,MullerLyer_6.00000_-0.24183.png,B,50.0,1282246.0,0.887,arrowdown,arrowdown,0
qbb6xqvqpv,MullerLyer,-0.1337,30.0,MullerLyer_30.0000_-0.1337.png,B,51.0,1284195.0,3.304,arrowup,arrowdown,1
qbb6xqvqpv,MullerLyer,-0.1337,-30.0,MullerLyer_-30.000_-0.1337.png,B,52.0,1288530.0,1.03,arrowdown,arrowdown,0
qbb6xqvqpv,MullerLyer,0.24183,-18.0,MullerLyer_-18.000_0.24183.png,B,53.0,1290456.0,0.672,arrowup,arrowup,0
qbb6xqvqpv,MullerLyer,0.1337,-12.0,MullerLyer_-12.000_0.13370.png,B,54.0,1291919.0,0.937,arrowup,arrowup,0
qbb6xqvqpv,MullerLyer,0.37364,30.0,MullerLyer_30.0000_0.37364.png,B,55.0,1293924.0,1.234,arrowup,arrowup,0
qbb6xqvqpv,MullerLyer,-0.045,18.0,MullerLyer_18.0000_-0.0450.png,B,56.0,1296241.0,0.796,arrowup,arrowdown,1
qbb6xqvqpv,MullerLyer,-0.1337,18.0,MullerLyer_18.0000_-0.1337.png,B,57.0,1297709.0,0.964,arrowup,arrowdown,1
qbb6xqvqpv,MullerLyer,-0.37364,-18.0,MullerLyer_-18.000_-0.37364.png,B,58.0,1299281.0,0.832,arrowdown,arrowdown,0
qbb6xqvqpv,MullerLyer,-0.37364,6.0,MullerLyer_6.00000_-0.37364.png,B,59.0,1300892.0,0.591,arrowdown,arrowdown,0
qbb6xqvqpv,MullerLyer,0.37364,-12.0,MullerLyer_-12.000_0.37364.png,B,60.0,1302204.0,0.73,arrowup,arrowup,0
qbb6xqvqpv,MullerLyer,0.045,-24.0,MullerLyer_-24.000_0.04500.png,B,61.0,1303640.0,0.737,arrowup,arrowup,0
qbb6xqvqpv,MullerLyer,0.24183,12.0,MullerLyer_12.0000_0.24183.png,B,62.0,1305440.0,1.967,arrowup,arrowup,0
qbb6xqvqpv,MullerLyer,-0.24183,30.0,MullerLyer_30.0000_-0.24183.png,B,63.0,1308316.0,5.829,arrowdown,arrowdown,0
qbb6xqvqpv,MullerLyer,0.045,-12.0,MullerLyer_-12.000_0.04500.png,B,64.0,1315207.0,0.737,arrowup,arrowup,0
qbb6xqvqpv,MullerLyer,0.37364,12.0,MullerLyer_12.0000_0.37364.png,B,65.0,1316875.0,0.835,arrowup,arrowup,0
qbb6xqvqpv,MullerLyer,-0.045,-30.0,MullerLyer_-30.000_-0.0450.png,B,66.0,1318688.0,0.728,arrowdown,arrowdown,0
qbb6xqvqpv,MullerLyer,-0.045,-24.0,MullerLyer_-24.000_-0.0450.png,B,67.0,1320093.0,1.037,arrowdown,arrowdown,0
qbb6xqvqpv,MullerLyer,0.045,30.0,MullerLyer_30.0000_0.04500.png,B,68.0,1322008.0,1.005,arrowdown,arrowup,1
qbb6xqvqpv,MullerLyer,0.045,18.0,MullerLyer_18.0000_0.04500.png,B,69.0,1323964.0,1.227,arrowdown,arrowup,1
qbb6xqvqpv,MullerLyer,0.1337,6.0,MullerLyer_6.00000_0.13370.png,B,70.0,1326011.0,1.384,arrowup,arrowup,0
qbb6xqvqpv,MullerLyer,-0.37364,-6.0,MullerLyer_-6.0000_-0.37364.png,B,71.0,1328255.0,0.744,arrowdown,arrowdown,0
qbb6xqvqpv,MullerLyer,0.1337,24.0,MullerLyer_24.0000_0.13370.png,B,72.0,1329661.0,1.372,arrowdown,arrowup,1
qbb6xqvqpv,MullerLyer,0.1337,30.0,MullerLyer_30.0000_0.13370.png,B,73.0,1331930.0,0.996,arrowdown,arrowup,1
qbb6xqvqpv,MullerLyer,0.045,-18.0,MullerLyer_-18.000_0.04500.png,B,74.0,1333815.0,1.01,arrowup,arrowup,0
qbb6xqvqpv,MullerLyer,-0.24183,-18.0,MullerLyer_-18.000_-0.24183.png,B,75.0,1335848.0,1.223,arrowdown,arrowdown,0
qbb6xqvqpv,MullerLyer,-0.045,6.0,MullerLyer_6.00000_-0.0450.png,B,76.0,1338132.0,4.66,arrowdown,arrowdown,0
qbb6xqvqpv,MullerLyer,0.1337,-18.0,MullerLyer_-18.000_0.13370.png,B,77.0,1343631.0,0.678,arrowup,arrowup,0
qbb6xqvqpv,MullerLyer,0.37364,-18.0,MullerLyer_-18.000_0.37364.png,B,78.0,1345208.0,0.604,arrowup,arrowup,0
qbb6xqvqpv,MullerLyer,-0.24183,-6.0,MullerLyer_-6.0000_-0.24183.png,B,79.0,1346677.0,0.673,arrowdown,arrowdown,0
qbb6xqvqpv,MullerLyer,-0.1337,24.0,MullerLyer_24.0000_-0.1337.png,B,80.0,1348354.0,0.757,arrowup,arrowdown,1
qbb6xqvqpv,Ebbinghaus,-0.2687,0.9,Ebbinghaus_0.90000_-0.2687.png,B,1.0,1356487.0,2.518,arrowright,arrowright,0
qbb6xqvqpv,Ebbinghaus,-0.2687,-1.2,Ebbinghaus_-1.2000_-0.2687.png,B,2.0,1359757.0,0.705,arrowright,arrowright,0
qbb6xqvqpv,Ebbinghaus,0.2687,0.9,Ebbinghaus_0.90000_0.26870.png,B,3.0,1361162.0,1.267,arrowleft,arrowleft,0
qbb6xqvqpv,Ebbinghaus,-0.41515,1.5,Ebbinghaus_1.50000_-0.41515.png,B,4.0,1363466.0,1.392,arrowright,arrowright,0
qbb6xqvqpv,Ebbinghaus,0.14856,0.3,Ebbinghaus_0.30000_0.14856.png,B,5.0,1365662.0,1.66,arrowleft,arrowleft,0
qbb6xqvqpv,Ebbinghaus,0.2687,0.6,Ebbinghaus_0.60000_0.26870.png,B,6.0,1368224.0,0.988,arrowleft,arrowleft,0
qbb6xqvqpv,Ebbinghaus,-0.14856,1.5,Ebbinghaus_1.50000_-0.14856.png,B,7.0,1369923.0,0.979,arrowleft,arrowright,1
qbb6xqvqpv,Ebbinghaus,-0.2687,-1.5,Ebbinghaus_-1.5000_-0.2687.png,B,8.0,1371910.0,0.856,arrowright,arrowright,0
qbb6xqvqpv,Ebbinghaus,-0.05,-0.6,Ebbinghaus_-0.6000_-0.0500.png,B,9.0,1373445.0,2.899,arrowleft,arrowright,1
qbb6xqvqpv,Ebbinghaus,-0.14856,-0.3,Ebbinghaus_-0.3000_-0.14856.png,B,10.0,1377047.0,0.919,arrowright,arrowright,0
qbb6xqvqpv,Ebbinghaus,0.2687,-1.5,Ebbinghaus_-1.5000_0.26870.png,B,11.0,1378975.0,1.002,arrowleft,arrowleft,0
qbb6xqvqpv,Ebbinghaus,0.41515,-0.9,Ebbinghaus_-0.9000_0.41515.png,B,12.0,1380709.0,0.504,arrowleft,arrowleft,0
qbb6xqvqpv,Ebbinghaus,-0.14856,0.3,Ebbinghaus_0.30000_-0.14856.png,B,13.0,1382076.0,0.754,arrowright,arrowright,0
qbb6xqvqpv,Ebbinghaus,-0.14856,-1.2,Ebbinghaus_-1.2000_-0.14856.png,B,14.0,1383635.0,0.66,arrowright,arrowright,0
qbb6xqvqpv,Ebbinghaus,0.05,-0.3,Ebbinghaus_-0.3000_0.05000.png,B,15.0,1385022.0,0.976,arrowleft,arrowleft,0
qbb6xqvqpv,Ebbinghaus,0.14856,-1.2,Ebbinghaus_-1.2000_0.14856.png,B,16.0,1386662.0,0.744,arrowleft,arrowleft,0
qbb6xqvqpv,Ebbinghaus,-0.41515,-1.5,Ebbinghaus_-1.5000_-0.41515.png,B,17.0,1388498.0,0.6,arrowright,arrowright,0
qbb6xqvqpv,Ebbinghaus,0.14856,-1.5,Ebbinghaus_-1.5000_0.14856.png,B,18.0,1390064.0,0.934,arrowleft,arrowleft,0
qbb6xqvqpv,Ebbinghaus,-0.05,0.6,Ebbinghaus_0.60000_-0.0500.png,B,19.0,1392092.0,1.649,arrowleft,arrowright,1
qbb6xqvqpv,Ebbinghaus,0.41515,1.2,Ebbinghaus_1.20000_0.41515.png,B,20.0,1394585.0,3.5,arrowleft,arrowleft,0
qbb6xqvqpv,Ebbinghaus,-0.41515,0.3,Ebbinghaus_0.30000_-0.41515.png,B,21.0,1399048.0,0.73,arrowright,arrowright,0
qbb6xqvqpv,Ebbinghaus,0.2687,1.5,Ebbinghaus_1.50000_0.26870.png,B,22.0,1400616.0,3.191,arrowleft,arrowleft,0
qbb6xqvqpv,Ebbinghaus,-0.2687,-0.9,Ebbinghaus_-0.9000_-0.2687.png,B,23.0,1404426.0,0.762,arrowright,arrowright,0
qbb6xqvqpv,Ebbinghaus,0.05,-0.6,Ebbinghaus_-0.6000_0.05000.png,B,24.0,1406060.0,0.878,arrowleft,arrowleft,0
qbb6xqvqpv,Ebbinghaus,-0.2687,1.2,Ebbinghaus_1.20000_-0.2687.png,B,25.0,1407698.0,1.082,arrowright,arrowright,0
qbb6xqvqpv,Ebbinghaus,-0.05,1.2,Ebbinghaus_1.20000_-0.0500.png,B,26.0,1409846.0,2.76,arrowleft,arrowright,1
qbb6xqvqpv,Ebbinghaus,0.2687,-0.3,Ebbinghaus_-0.3000_0.26870.png,B,27.0,1413626.0,0.746,arrowleft,arrowleft,0
qbb6xqvqpv,Ebbinghaus,0.41515,1.5,Ebbinghaus_1.50000_0.41515.png,B,28.0,1415313.0,1.675,arrowleft,arrowleft,0
qbb6xqvqpv,Ebbinghaus,-0.41515,-0.9,Ebbinghaus_-0.9000_-0.41515.png,B,29.0,1417816.0,0.555,arrowright,arrowright,0
qbb6xqvqpv,Ebbinghaus,-0.41515,0.9,Ebbinghaus_0.90000_-0.41515.png,B,30.0,1419247.0,0.881,arrowright,arrowright,0
qbb6xqvqpv,Ebbinghaus,-0.05,-0.3,Ebbinghaus_-0.3000_-0.0500.png,B,31.0,1421110.0,0.846,arrowright,arrowright,0
qbb6xqvqpv,Ebbinghaus,-0.05,1.5,Ebbinghaus_1.50000_-0.0500.png,B,32.0,1423060.0,0.759,arrowleft,arrowright,1
qbb6xqvqpv,Ebbinghaus,-0.41515,-0.6,Ebbinghaus_-0.6000_-0.41515.png,B,33.0,1424776.0,0.652,arrowright,arrowright,0
qbb6xqvqpv,Ebbinghaus,-0.14856,-0.6,Ebbinghaus_-0.6000_-0.14856.png,B,34.0,1426510.0,0.999,arrowright,arrowright,0
qbb6xqvqpv,Ebbinghaus,-0.05,-0.9,Ebbinghaus_-0.9000_-0.0500.png,B,35.0,1428467.0,1.566,arrowright,arrowright,0
qbb6xqvqpv,Ebbinghaus,0.2687,0.3,Ebbinghaus_0.30000_0.26870.png,B,36.0,1430939.0,1.565,arrowleft,arrowleft,0
qbb6xqvqpv,Ebbinghaus,-0.2687,0.3,Ebbinghaus_0.30000_-0.2687.png,B,37.0,1433187.0,1.232,arrowright,arrowright,0
qbb6xqvqpv,Ebbinghaus,-0.41515,-0.3,Ebbinghaus_-0.3000_-0.41515.png,B,38.0,1435502.0,0.681,arrowright,arrowright,0
qbb6xqvqpv,Ebbinghaus,-0.41515,-1.2,Ebbinghaus_-1.2000_-0.41515.png,B,39.0,1437074.0,0.659,arrowright,arrowright,0
qbb6xqvqpv,Ebbinghaus,-0.41515,1.2,Ebbinghaus_1.20000_-0.41515.png,B,40.0,1438498.0,1.745,arrowright,arrowright,0
qbb6xqvqpv,Ebbinghaus,-0.05,0.3,Ebbinghaus_0.30000_-0.0500.png,B,41.0,1441354.0,4.421,arrowleft,arrowright,1
qbb6xqvqpv,Ebbinghaus,0.41515,-0.3,Ebbinghaus_-0.3000_0.41515.png,B,42.0,1446501.0,0.577,arrowleft,arrowleft,0
qbb6xqvqpv,Ebbinghaus,-0.05,0.9,Ebbinghaus_0.90000_-0.0500.png,B,43.0,1448032.0,2.351,arrowleft,arrowright,1
qbb6xqvqpv,Ebbinghaus,-0.05,-1.5,Ebbinghaus_-1.5000_-0.0500.png,B,44.0,1451315.0,1.058,arrowright,arrowright,0
qbb6xqvqpv,Ebbinghaus,0.41515,-0.6,Ebbinghaus_-0.6000_0.41515.png,B,45.0,1453301.0,0.795,arrowleft,arrowleft,0
qbb6xqvqpv,Ebbinghaus,0.2687,-1.2,Ebbinghaus_-1.2000_0.26870.png,B,46.0,1455101.0,0.954,arrowleft,arrowleft,0
qbb6xqvqpv,Ebbinghaus,0.14856,-0.6,Ebbinghaus_-0.6000_0.14856.png,B,47.0,1457097.0,0.988,arrowleft,arrowleft,0
qbb6xqvqpv,Ebbinghaus,-0.14856,-1.5,Ebbinghaus_-1.5000_-0.14856.png,B,48.0,1459188.0,1.223,arrowright,arrowright,0
qbb6xqvqpv,Ebbinghaus,0.05,-0.9,Ebbinghaus_-0.9000_0.05000.png,B,49.0,1461465.0,0.987,arrowleft,arrowleft,0
qbb6xqvqpv,Ebbinghaus,0.05,1.2,Ebbinghaus_1.20000_0.05000.png,B,50.0,1463383.0,0.979,arrowright,arrowleft,1
qbb6xqvqpv,Ebbinghaus,0.05,0.6,Ebbinghaus_0.60000_0.05000.png,B,51.0,1465070.0,2.499,arrowleft,arrowleft,0
qbb6xqvqpv,Ebbinghaus,0.14856,-0.3,Ebbinghaus_-0.3000_0.14856.png,B,52.0,1468460.0,0.856,arrowleft,arrowleft,0
qbb6xqvqpv,Ebbinghaus,0.05,-1.2,Ebbinghaus_-1.2000_0.05000.png,B,53.0,1470418.0,0.686,arrowleft,arrowleft,0
qbb6xqvqpv,Ebbinghaus,0.05,0.9,Ebbinghaus_0.90000_0.05000.png,B,54.0,1472054.0,3.201,arrowright,arrowleft,1
qbb6xqvqpv,Ebbinghaus,-0.2687,1.5,Ebbinghaus_1.50000_-0.2687.png,B,55.0,1476347.0,3.781,arrowright,arrowright,0
qbb6xqvqpv,Ebbinghaus,0.14856,0.9,Ebbinghaus_0.90000_0.14856.png,B,56.0,1480914.0,4.118,arrowright,arrowleft,1
qbb6xqvqpv,Ebbinghaus,0.41515,-1.2,Ebbinghaus_-1.2000_0.41515.png,B,57.0,1485884.0,0.707,arrowleft,arrowleft,0
qbb6xqvqpv,Ebbinghaus,0.41515,0.9,Ebbinghaus_0.90000_0.41515.png,B,58.0,1487631.0,2.947,arrowleft,arrowleft,0
qbb6xqvqpv,Ebbinghaus,0.41515,-1.5,Ebbinghaus_-1.5000_0.41515.png,B,59.0,1491191.0,0.65,arrowleft,arrowleft,0
qbb6xqvqpv,Ebbinghaus,0.41515,0.3,Ebbinghaus_0.30000_0.41515.png,B,60.0,1492609.0,0.881,arrowleft,arrowleft,0
qbb6xqvqpv,Ebbinghaus,-0.41515,0.6,Ebbinghaus_0.60000_-0.41515.png,B,61.0,1494372.0,0.702,arrowright,arrowright,0
qbb6xqvqpv,Ebbinghaus,-0.05,-1.2,Ebbinghaus_-1.2000_-0.0500.png,B,62.0,1495981.0,0.875,arrowright,arrowright,0
qbb6xqvqpv,Ebbinghaus,0.2687,-0.6,Ebbinghaus_-0.6000_0.26870.png,B,63.0,1497923.0,0.828,arrowleft,arrowleft,0
qbb6xqvqpv,Ebbinghaus,0.14856,1.5,Ebbinghaus_1.50000_0.14856.png,B,64.0,1499865.0,0.976,arrowright,arrowleft,1
qbb6xqvqpv,Ebbinghaus,0.05,0.3,Ebbinghaus_0.30000_0.05000.png,B,65.0,1501603.0,4.436,arrowleft,arrowleft,0
qbb6xqvqpv,Ebbinghaus,-0.2687,0.6,Ebbinghaus_0.60000_-0.2687.png,B,66.0,1507006.0,0.894,arrowright,arrowright,0
qbb6xqvqpv,Ebbinghaus,0.14856,-0.9,Ebbinghaus_-0.9000_0.14856.png,B,67.0,1508959.0,1.032,arrowleft,arrowleft,0
qbb6xqvqpv,Ebbinghaus,-0.14856,-0.9,Ebbinghaus_-0.9000_-0.14856.png,B,68.0,1510985.0,0.638,arrowright,arrowright,0
qbb6xqvqpv,Ebbinghaus,-0.14856,1.2,Ebbinghaus_1.20000_-0.14856.png,B,69.0,1512427.0,0.984,arrowleft,arrowright,1
qbb6xqvqpv,Ebbinghaus,0.05,-1.5,Ebbinghaus_-1.5000_0.05000.png,B,70.0,1514478.0,0.626,arrowleft,arrowleft,0
qbb6xqvqpv,Ebbinghaus,-0.14856,0.9,Ebbinghaus_0.90000_-0.14856.png,B,71.0,1515948.0,0.714,arrowright,arrowright,0
qbb6xqvqpv,Ebbinghaus,0.14856,0.6,Ebbinghaus_0.60000_0.14856.png,B,72.0,1517651.0,1.01,arrowleft,arrowleft,0
qbb6xqvqpv,Ebbinghaus,-0.2687,-0.6,Ebbinghaus_-0.6000_-0.2687.png,B,73.0,1519597.0,0.507,arrowright,arrowright,0
qbb6xqvqpv,Ebbinghaus,-0.14856,0.6,Ebbinghaus_0.60000_-0.14856.png,B,74.0,1520967.0,0.714,arrowright,arrowright,0
qbb6xqvqpv,Ebbinghaus,-0.2687,-0.3,Ebbinghaus_-0.3000_-0.2687.png,B,75.0,1522652.0,0.707,arrowright,arrowright,0
qbb6xqvqpv,Ebbinghaus,0.2687,-0.9,Ebbinghaus_-0.9000_0.26870.png,B,76.0,1524185.0,0.558,arrowleft,arrowleft,0
qbb6xqvqpv,Ebbinghaus,0.41515,0.6,Ebbinghaus_0.60000_0.41515.png,B,77.0,1525530.0,0.991,arrowleft,arrowleft,0
qbb6xqvqpv,Ebbinghaus,0.05,1.5,Ebbinghaus_1.50000_0.05000.png,B,78.0,1527267.0,0.682,arrowright,arrowleft,1
qbb6xqvqpv,Ebbinghaus,0.14856,1.2,Ebbinghaus_1.20000_0.14856.png,B,79.0,1528596.0,0.967,arrowright,arrowleft,1
qbb6xqvqpv,Ebbinghaus,0.2687,1.2,Ebbinghaus_1.20000_0.26870.png,B,80.0,1530255.0,2.664,arrowleft,arrowleft,0
qbb6xqvqpv,VerticalHorizontal,0.16122,-18.0,VerticalHorizontal_-18.000_0.16122.png,B,1.0,1541171.0,0.748,arrowleft,arrowleft,0
qbb6xqvqpv,VerticalHorizontal,-0.24909,-18.0,VerticalHorizontal_-18.000_-0.24909.png,B,2.0,1542747.0,0.639,arrowright,arrowright,0
qbb6xqvqpv,VerticalHorizontal,0.08913,-36.0,VerticalHorizontal_-36.000_0.08913.png,B,3.0,1544029.0,0.614,arrowleft,arrowleft,0
qbb6xqvqpv,VerticalHorizontal,0.24909,-18.0,VerticalHorizontal_-18.000_0.24909.png,B,4.0,1545748.0,0.572,arrowleft,arrowleft,0
qbb6xqvqpv,VerticalHorizontal,-0.16122,45.0,VerticalHorizontal_45.0000_-0.16122.png,B,5.0,1547114.0,1.197,arrowright,arrowright,0
qbb6xqvqpv,VerticalHorizontal,0.24909,-45.0,VerticalHorizontal_-45.000_0.24909.png,B,6.0,1549055.0,0.544,arrowleft,arrowleft,0
qbb6xqvqpv,VerticalHorizontal,0.24909,9.0,VerticalHorizontal_9.00000_0.24909.png,B,7.0,1550489.0,0.552,arrowleft,arrowleft,0
qbb6xqvqpv,VerticalHorizontal,-0.16122,9.0,VerticalHorizontal_9.00000_-0.16122.png,B,8.0,1552134.0,0.825,arrowright,arrowright,0
qbb6xqvqpv,VerticalHorizontal,0.16122,-27.0,VerticalHorizontal_-27.000_0.16122.png,B,9.0,1553754.0,0.799,arrowleft,arrowleft,0
qbb6xqvqpv,VerticalHorizontal,-0.03,9.0,VerticalHorizontal_9.00000_-0.0300.png,B,10.0,1555547.0,1.165,arrowright,arrowright,0
qbb6xqvqpv,VerticalHorizontal,0.16122,-45.0,VerticalHorizontal_-45.000_0.16122.png,B,11.0,1557785.0,1.416,arrowright,arrowleft,1
qbb6xqvqpv,VerticalHorizontal,-0.08913,-45.0,VerticalHorizontal_-45.000_-0.08913.png,B,12.0,1559819.0,0.855,arrowright,arrowright,0
qbb6xqvqpv,VerticalHorizontal,-0.08913,36.0,VerticalHorizontal_36.0000_-0.08913.png,B,13.0,1561449.0,2.215,arrowright,arrowright,0
qbb6xqvqpv,VerticalHorizontal,0.08913,18.0,VerticalHorizontal_18.0000_0.08913.png,B,14.0,1564562.0,2.489,arrowleft,arrowleft,0
qbb6xqvqpv,VerticalHorizontal,0.16122,27.0,VerticalHorizontal_27.0000_0.16122.png,B,15.0,1568094.0,2.26,arrowleft,arrowleft,0
qbb6xqvqpv,VerticalHorizontal,0.03,9.0,VerticalHorizontal_9.00000_0.03000.png,B,16.0,1571093.0,3.194,arrowright,arrowleft,1
qbb6xqvqpv,VerticalHorizontal,-0.24909,-45.0,VerticalHorizontal_-45.000_-0.24909.png,B,17.0,1574899.0,0.487,arrowright,arrowright,0
qbb6xqvqpv,VerticalHorizontal,-0.08913,9.0,VerticalHorizontal_9.00000_-0.08913.png,B,18.0,1576026.0,0.674,arrowright,arrowright,0
qbb6xqvqpv,VerticalHorizontal,-0.16122,18.0,VerticalHorizontal_18.0000_-0.16122.png,B,19.0,1577662.0,0.733,arrowright,arrowright,0
qbb6xqvqpv,VerticalHorizontal,0.03,27.0,VerticalHorizontal_27.0000_0.03000.png,B,20.0,1579438.0,1.446,arrowright,arrowleft,1
qbb6xqvqpv,VerticalHorizontal,0.03,-9.0,VerticalHorizontal_-9.0000_0.03000.png,B,21.0,1581690.0,1.564,arrowleft,arrowleft,0
qbb6xqvqpv,VerticalHorizontal,-0.24909,18.0,VerticalHorizontal_18.0000_-0.24909.png,B,22.0,1583864.0,0.605,arrowright,arrowright,0
qbb6xqvqpv,VerticalHorizontal,0.03,45.0,VerticalHorizontal_45.0000_0.03000.png,B,23.0,1585381.0,1.357,arrowright,arrowleft,1
qbb6xqvqpv,VerticalHorizontal,-0.24909,9.0,VerticalHorizontal_9.00000_-0.24909.png,B,24.0,1587540.0,0.703,arrowright,arrowright,0
qbb6xqvqpv,VerticalHorizontal,0.03,-36.0,VerticalHorizontal_-36.000_0.03000.png,B,25.0,1589109.0,1.257,arrowleft,arrowleft,0
qbb6xqvqpv,VerticalHorizontal,-0.16122,-18.0,VerticalHorizontal_-18.000_-0.16122.png,B,26.0,1591079.0,0.57,arrowright,arrowright,0
qbb6xqvqpv,VerticalHorizontal,-0.24909,27.0,VerticalHorizontal_27.0000_-0.24909.png,B,27.0,1592290.0,1.092,arrowright,arrowright,0
qbb6xqvqpv,VerticalHorizontal,-0.03,36.0,VerticalHorizontal_36.0000_-0.0300.png,B,28.0,1594099.0,3.077,arrowleft,arrowright,1
qbb6xqvqpv,VerticalHorizontal,-0.03,45.0,VerticalHorizontal_45.0000_-0.0300.png,B,29.0,1598227.0,1.067,arrowleft,arrowright,1
qbb6xqvqpv,VerticalHorizontal,-0.08913,-18.0,VerticalHorizontal_-18.000_-0.08913.png,B,30.0,1599908.0,0.594,arrowright,arrowright,0
qbb6xqvqpv,VerticalHorizontal,0.03,36.0,VerticalHorizontal_36.0000_0.03000.png,B,31.0,1601342.0,2.254,arrowright,arrowleft,1
qbb6xqvqpv,VerticalHorizontal,0.24909,27.0,VerticalHorizontal_27.0000_0.24909.png,B,32.0,1604543.0,0.597,arrowleft,arrowleft,0
qbb6xqvqpv,VerticalHorizontal,-0.03,-9.0,VerticalHorizontal_-9.0000_-0.0300.png,B,33.0,1606010.0,1.668,arrowright,arrowright,0
qbb6xqvqpv,VerticalHorizontal,0.03,-18.0,VerticalHorizontal_-18.000_0.03000.png,B,34.0,1608432.0,1.281,arrowleft,arrowleft,0
qbb6xqvqpv,VerticalHorizontal,0.24909,45.0,VerticalHorizontal_45.0000_0.24909.png,B,35.0,1610761.0,1.104,arrowleft,arrowleft,0
qbb6xqvqpv,VerticalHorizontal,0.16122,9.0,VerticalHorizontal_9.00000_0.16122.png,B,36.0,1612866.0,0.547,arrowleft,arrowleft,0
qbb6xqvqpv,VerticalHorizontal,0.08913,36.0,VerticalHorizontal_36.0000_0.08913.png,B,37.0,1614364.0,1.393,arrowright,arrowleft,1
qbb6xqvqpv,VerticalHorizontal,0.08913,-45.0,VerticalHorizontal_-45.000_0.08913.png,B,38.0,1616837.0,0.599,arrowleft,arrowleft,0
qbb6xqvqpv,VerticalHorizontal,0.08913,45.0,VerticalHorizontal_45.0000_0.08913.png,B,39.0,1618195.0,0.559,arrowright,arrowleft,1
qbb6xqvqpv,VerticalHorizontal,-0.24909,-36.0,VerticalHorizontal_-36.000_-0.24909.png,B,40.0,1619637.0,0.437,arrowright,arrowright,0
qbb6xqvqpv,VerticalHorizontal,0.16122,36.0,VerticalHorizontal_36.0000_0.16122.png,B,41.0,1620782.0,0.827,arrowleft,arrowleft,0
qbb6xqvqpv,VerticalHorizontal,-0.08913,27.0,VerticalHorizontal_27.0000_-0.08913.png,B,42.0,1622600.0,5.431,arrowright,arrowright,0
qbb6xqvqpv,VerticalHorizontal,0.08913,-27.0,VerticalHorizontal_-27.000_0.08913.png,B,43.0,1628737.0,0.542,arrowleft,arrowleft,0
qbb6xqvqpv,VerticalHorizontal,0.03,-27.0,VerticalHorizontal_-27.000_0.03000.png,B,44.0,1630362.0,0.806,arrowleft,arrowleft,0
qbb6xqvqpv,VerticalHorizontal,0.24909,18.0,VerticalHorizontal_18.0000_0.24909.png,B,45.0,1632125.0,0.508,arrowleft,arrowleft,0
qbb6xqvqpv,VerticalHorizontal,-0.24909,36.0,VerticalHorizontal_36.0000_-0.24909.png,B,46.0,1633481.0,0.472,arrowright,arrowright,0
qbb6xqvqpv,VerticalHorizontal,-0.03,18.0,VerticalHorizontal_18.0000_-0.0300.png,B,47.0,1634861.0,1.302,arrowleft,arrowright,1
qbb6xqvqpv,VerticalHorizontal,-0.16122,-27.0,VerticalHorizontal_-27.000_-0.16122.png,B,48.0,1637027.0,0.472,arrowright,arrowright,0
qbb6xqvqpv,VerticalHorizontal,-0.16122,-36.0,VerticalHorizontal_-36.000_-0.16122.png,B,49.0,1638262.0,0.509,arrowright,arrowright,0
qbb6xqvqpv,VerticalHorizontal,-0.08913,-36.0,VerticalHorizontal_-36.000_-0.08913.png,B,50.0,1639601.0,0.653,arrowright,arrowright,0
qbb6xqvqpv,VerticalHorizontal,0.03,18.0,VerticalHorizontal_18.0000_0.03000.png,B,51.0,1640975.0,1.984,arrowleft,arrowleft,0
qbb6xqvqpv,VerticalHorizontal,0.24909,-27.0,VerticalHorizontal_-27.000_0.24909.png,B,52.0,1644001.0,0.602,arrowleft,arrowleft,0
qbb6xqvqpv,VerticalHorizontal,-0.16122,-45.0,VerticalHorizontal_-45.000_-0.16122.png,B,53.0,1645561.0,0.424,arrowright,arrowright,0
qbb6xqvqpv,VerticalHorizontal,-0.08913,18.0,VerticalHorizontal_18.0000_-0.08913.png,B,54.0,1646878.0,2.093,arrowright,arrowright,0
qbb6xqvqpv,VerticalHorizontal,-0.16122,-9.0,VerticalHorizontal_-9.0000_-0.16122.png,B,55.0,1649986.0,0.545,arrowright,arrowright,0
qbb6xqvqpv,VerticalHorizontal,0.24909,36.0,VerticalHorizontal_36.0000_0.24909.png,B,56.0,1651528.0,0.514,arrowleft,arrowleft,0
qbb6xqvqpv,VerticalHorizontal,-0.03,-45.0,VerticalHorizontal_-45.000_-0.0300.png,B,57.0,1652666.0,0.515,arrowright,arrowright,0
qbb6xqvqpv,VerticalHorizontal,-0.08913,-27.0,VerticalHorizontal_-27.000_-0.08913.png,B,58.0,1654135.0,0.417,arrowright,arrowright,0
qbb6xqvqpv,VerticalHorizontal,-0.08913,45.0,VerticalHorizontal_45.0000_-0.08913.png,B,59.0,1655192.0,0.53,arrowleft,arrowright,1
qbb6xqvqpv,VerticalHorizontal,0.08913,-18.0,VerticalHorizontal_-18.000_0.08913.png,B,60.0,1656595.0,0.81,arrowleft,arrowleft,0
qbb6xqvqpv,VerticalHorizontal,-0.16122,27.0,VerticalHorizontal_27.0000_-0.16122.png,B,61.0,1658389.0,1.292,arrowright,arrowright,0
qbb6xqvqpv,VerticalHorizontal,0.16122,45.0,VerticalHorizontal_45.0000_0.16122.png,B,62.0,1660656.0,0.787,arrowleft,arrowleft,0
qbb6xqvqpv,VerticalHorizontal,-0.24909,-9.0,VerticalHorizontal_-9.0000_-0.24909.png,B,63.0,1662093.0,0.451,arrowright,arrowright,0
qbb6xqvqpv,VerticalHorizontal,0.08913,27.0,VerticalHorizontal_27.0000_0.08913.png,B,64.0,1663268.0,1.385,arrowleft,arrowleft,0
qbb6xqvqpv,VerticalHorizontal,0.08913,9.0,VerticalHorizontal_9.00000_0.08913.png,B,65.0,1665561.0,1.291,arrowleft,arrowleft,0
qbb6xqvqpv,VerticalHorizontal,-0.03,-27.0,VerticalHorizontal_-27.000_-0.0300.png,B,66.0,1667743.0,0.496,arrowright,arrowright,0
qbb6xqvqpv,VerticalHorizontal,0.03,-45.0,VerticalHorizontal_-45.000_0.03000.png,B,67.0,1669227.0,0.511,arrowleft,arrowleft,0
qbb6xqvqpv,VerticalHorizontal,0.08913,-9.0,VerticalHorizontal_-9.0000_0.08913.png,B,68.0,1670447.0,0.501,arrowleft,arrowleft,0
qbb6xqvqpv,VerticalHorizontal,-0.03,-36.0,VerticalHorizontal_-36.000_-0.0300.png,B,69.0,1671897.0,0.535,arrowright,arrowright,0
qbb6xqvqpv,VerticalHorizontal,-0.16122,36.0,VerticalHorizontal_36.0000_-0.16122.png,B,70.0,1673133.0,1.41,arrowright,arrowright,0
qbb6xqvqpv,VerticalHorizontal,-0.24909,45.0,VerticalHorizontal_45.0000_-0.24909.png,B,71.0,1675304.0,0.859,arrowright,arrowright,0
qbb6xqvqpv,VerticalHorizontal,-0.08913,-9.0,VerticalHorizontal_-9.0000_-0.08913.png,B,72.0,1677033.0,1.194,arrowright,arrowright,0
qbb6xqvqpv,VerticalHorizontal,0.24909,-9.0,VerticalHorizontal_-9.0000_0.24909.png,B,73.0,1679216.0,0.531,arrowleft,arrowleft,0
qbb6xqvqpv,VerticalHorizontal,0.16122,-36.0,VerticalHorizontal_-36.000_0.16122.png,B,74.0,1680516.0,0.454,arrowleft,arrowleft,0
qbb6xqvqpv,VerticalHorizontal,-0.24909,-27.0,VerticalHorizontal_-27.000_-0.24909.png,B,75.0,1682032.0,0.461,arrowright,arrowright,0
qbb6xqvqpv,VerticalHorizontal,-0.03,-18.0,VerticalHorizontal_-18.000_-0.0300.png,B,76.0,1683102.0,1.377,arrowleft,arrowright,1
qbb6xqvqpv,VerticalHorizontal,0.24909,-36.0,VerticalHorizontal_-36.000_0.24909.png,B,77.0,1685389.0,0.443,arrowleft,arrowleft,0
qbb6xqvqpv,VerticalHorizontal,0.16122,18.0,VerticalHorizontal_18.0000_0.16122.png,B,78.0,1686899.0,0.992,arrowleft,arrowleft,0
qbb6xqvqpv,VerticalHorizontal,0.16122,-9.0,VerticalHorizontal_-9.0000_0.16122.png,B,79.0,1688808.0,0.586,arrowleft,arrowleft,0
qbb6xqvqpv,VerticalHorizontal,-0.03,27.0,VerticalHorizontal_27.0000_-0.0300.png,B,80.0,1690185.0,1.305,arrowleft,arrowright,1
23pubcvhh0,MullerLyer,0.08716,15.0,MullerLyer_15.0000_0.08716.png,A,1.0,221162.0,0.632,arrowdown,arrowup,1
23pubcvhh0,MullerLyer,-0.08716,-3.0,MullerLyer_-3.0000_-0.08716.png,A,2.0,222415.0,0.637,arrowdown,arrowdown,0
23pubcvhh0,MullerLyer,-0.18509,-21.0,MullerLyer_-21.000_-0.18509.png,A,3.0,223685.0,0.483,arrowdown,arrowdown,0
23pubcvhh0,MullerLyer,-0.45,-15.0,MullerLyer_-15.000_-0.4500.png,A,4.0,225066.0,0.513,arrowdown,arrowdown,0
23pubcvhh0,MullerLyer,0.45,27.0,MullerLyer_27.0000_0.45000.png,A,5.0,226680.0,0.674,arrowup,arrowup,0
23pubcvhh0,MullerLyer,0.45,-21.0,MullerLyer_-21.000_0.45000.png,A,6.0,228214.0,0.505,arrowup,arrowup,0
23pubcvhh0,MullerLyer,0.30447,15.0,MullerLyer_15.0000_0.30447.png,A,7.0,229531.0,0.603,arrowdown,arrowup,1
23pubcvhh0,MullerLyer,-0.45,-21.0,MullerLyer_-21.000_-0.4500.png,A,8.0,230834.0,0.489,arrowdown,arrowdown,0
23pubcvhh0,MullerLyer,0.08716,-9.0,MullerLyer_-9.0000_0.08716.png,A,9.0,231985.0,0.523,arrowup,arrowup,0
23pubcvhh0,MullerLyer,0.18509,-9.0,MullerLyer_-9.0000_0.18509.png,A,10.0,233167.0,0.706,arrowup,arrowup,0
23pubcvhh0,MullerLyer,-0.18509,3.0,MullerLyer_3.00000_-0.18509.png,A,11.0,234501.0,0.606,arrowdown,arrowdown,0
23pubcvhh0,MullerLyer,0.45,9.0,MullerLyer_9.00000_0.45000.png,A,12.0,236165.0,0.433,arrowup,arrowup,0
23pubcvhh0,MullerLyer,0.30447,21.0,MullerLyer_21.0000_0.30447.png,A,13.0,237622.0,0.63,arrowdown,arrowup,1
23pubcvhh0,MullerLyer,-0.30447,-15.0,MullerLyer_-15.000_-0.30447.png,A,14.0,238973.0,0.488,arrowdown,arrowdown,0
23pubcvhh0,MullerLyer,-0.30447,15.0,MullerLyer_15.0000_-0.30447.png,A,15.0,240138.0,1.217,arrowdown,arrowdown,0
23pubcvhh0,MullerLyer,-0.30447,-27.0,MullerLyer_-27.000_-0.30447.png,A,16.0,242337.0,0.528,arrowdown,arrowdown,0
23pubcvhh0,MullerLyer,-0.08716,27.0,MullerLyer_27.0000_-0.08716.png,A,17.0,243558.0,0.442,arrowup,arrowdown,1
23pubcvhh0,MullerLyer,-0.18509,21.0,MullerLyer_21.0000_-0.18509.png,A,18.0,244670.0,0.687,arrowup,arrowdown,1
23pubcvhh0,MullerLyer,0.30447,9.0,MullerLyer_9.00000_0.30447.png,A,19.0,246394.0,0.72,arrowup,arrowup,0
23pubcvhh0,MullerLyer,-0.45,-9.0,MullerLyer_-9.0000_-0.4500.png,A,20.0,248201.0,0.389,arrowdown,arrowdown,0
23pubcvhh0,MullerLyer,0.30447,27.0,MullerLyer_27.0000_0.30447.png,A,21.0,249222.0,0.445,arrowup,arrowup,0
23pubcvhh0,MullerLyer,-0.30447,21.0,MullerLyer_21.0000_-0.30447.png,A,22.0,250572.0,0.702,arrowdown,arrowdown,0
23pubcvhh0,MullerLyer,0.18509,-3.0,MullerLyer_-3.0000_0.18509.png,A,23.0,252325.0,0.567,arrowup,arrowup,0
23pubcvhh0,MullerLyer,-0.45,-27.0,MullerLyer_-27.000_-0.4500.png,A,24.0,253811.0,0.38,arrowdown,arrowdown,0
23pubcvhh0,MullerLyer,0.45,-3.0,MullerLyer_-3.0000_0.45000.png,A,25.0,255115.0,0.426,arrowup,arrowup,0
23pubcvhh0,MullerLyer,-0.30447,-9.0,MullerLyer_-9.0000_-0.30447.png,A,26.0,256543.0,0.383,arrowdown,arrowdown,0
23pubcvhh0,MullerLyer,0.08716,-15.0,MullerLyer_-15.000_0.08716.png,A,27.0,257707.0,0.422,arrowup,arrowup,0
23pubcvhh0,MullerLyer,-0.30447,27.0,MullerLyer_27.0000_-0.30447.png,A,28.0,258765.0,0.627,arrowup,arrowdown,1
23pubcvhh0,MullerLyer,0.08716,27.0,MullerLyer_27.0000_0.08716.png,A,29.0,260489.0,0.504,arrowdown,arrowup,1
23pubcvhh0,MullerLyer,-0.30447,3.0,MullerLyer_3.00000_-0.30447.png,A,30.0,261993.0,0.529,arrowdown,arrowdown,0
23pubcvhh0,MullerLyer,0.45,21.0,MullerLyer_21.0000_0.45000.png,A,31.0,263308.0,0.422,arrowup,arrowup,0
23pubcvhh0,MullerLyer,0.08716,21.0,MullerLyer_21.0000_0.08716.png,A,32.0,264365.0,0.588,arrowdown,arrowup,1
23pubcvhh0,MullerLyer,0.30447,-3.0,MullerLyer_-3.0000_0.30447.png,A,33.0,265653.0,0.418,arrowup,arrowup,0
23pubcvhh0,MullerLyer,-0.45,21.0,MullerLyer_21.0000_-0.4500.png,A,34.0,266821.0,0.408,arrowdown,arrowdown,0
23pubcvhh0,MullerLyer,-0.08716,9.0,MullerLyer_9.00000_-0.08716.png,A,35.0,268245.0,0.388,arrowup,arrowdown,1
23pubcvhh0,MullerLyer,0.45,15.0,MullerLyer_15.0000_0.45000.png,A,36.0,269459.0,0.52,arrowup,arrowup,0
23pubcvhh0,MullerLyer,0.08716,-3.0,MullerLyer_-3.0000_0.08716.png,A,37.0,270969.0,0.522,arrowup,arrowup,0
23pubcvhh0,MullerLyer,0.30447,3.0,MullerLyer_3.00000_0.30447.png,A,38.0,272306.0,0.448,arrowup,arrowup,0
23pubcvhh0,MullerLyer,-0.18509,27.0,MullerLyer_27.0000_-0.18509.png,A,39.0,273393.0,0.96,arrowdown,arrowdown,0
23pubcvhh0,MullerLyer,-0.08716,3.0,MullerLyer_3.00000_-0.08716.png,A,40.0,275181.0,0.644,arrowdown,arrowdown,0
23pubcvhh0,MullerLyer,-0.18509,15.0,MullerLyer_15.0000_-0.18509.png,A,41.0,276807.0,0.51,arrowdown,arrowdown,0
23pubcvhh0,MullerLyer,0.30447,-21.0,MullerLyer_-21.000_0.30447.png,A,42.0,278303.0,0.437,arrowup,arrowup,0
23pubcvhh0,MullerLyer,-0.30447,-3.0,MullerLyer_-3.0000_-0.30447.png,A,43.0,279823.0,0.562,arrowdown,arrowdown,0
23pubcvhh0,MullerLyer,-0.45,3.0,MullerLyer_3.00000_-0.4500.png,A,44.0,281377.0,0.502,arrowdown,arrowdown,0
23pubcvhh0,MullerLyer,-0.18509,-9.0,MullerLyer_-9.0000_-0.18509.png,A,45.0,282634.0,0.588,arrowdown,arrowdown,0
23pubcvhh0,MullerLyer,0.45,-15.0,MullerLyer_-15.000_0.45000.png,A,46.0,284156.0,0.462,arrowup,arrowup,0
23pubcvhh0,MullerLyer,-0.18509,-27.0,MullerLyer_-27.000_-0.18509.png,A,47.0,285586.0,0.389,arrowdown,arrowdown,0
23pubcvhh0,MullerLyer,0.45,-9.0,MullerLyer_-9.0000_0.45000.png,A,48.0,286672.0,0.39,arrowup,arrowup,0
23pubcvhh0,MullerLyer,-0.08716,-15.0,MullerLyer_-15.000_-0.08716.png,A,49.0,287697.0,0.661,arrowdown,arrowdown,0
23pubcvhh0,MullerLyer,0.18509,9.0,MullerLyer_9.00000_0.18509.png,A,50.0,289385.0,0.696,arrowup,arrowup,0
23pubcvhh0,MullerLyer,0.18509,21.0,MullerLyer_21.0000_0.18509.png,A,51.0,290968.0,0.487,arrowdown,arrowup,1
23pubcvhh0,MullerLyer,0.18509,-15.0,MullerLyer_-15.000_0.18509.png,A,52.0,292255.0,0.524,arrowup,arrowup,0
23pubcvhh0,MullerLyer,0.18509,15.0,MullerLyer_15.0000_0.18509.png,A,53.0,293519.0,0.522,arrowdown,arrowup,1
23pubcvhh0,MullerLyer,0.30447,-27.0,MullerLyer_-27.000_0.30447.png,A,54.0,295133.0,0.423,arrowup,arrowup,0
23pubcvhh0,MullerLyer,0.08716,3.0,MullerLyer_3.00000_0.08716.png,A,55.0,296220.0,0.722,arrowdown,arrowup,1
23pubcvhh0,MullerLyer,-0.08716,-9.0,MullerLyer_-9.0000_-0.08716.png,A,56.0,298033.0,0.568,arrowdown,arrowdown,0
23pubcvhh0,MullerLyer,-0.18509,-15.0,MullerLyer_-15.000_-0.18509.png,A,57.0,299556.0,0.616,arrowdown,arrowdown,0
23pubcvhh0,MullerLyer,0.08716,-27.0,MullerLyer_-27.000_0.08716.png,A,58.0,301107.0,0.471,arrowup,arrowup,0
23pubcvhh0,MullerLyer,0.30447,-9.0,MullerLyer_-9.0000_0.30447.png,A,59.0,302688.0,0.493,arrowup,arrowup,0
23pubcvhh0,MullerLyer,-0.45,15.0,MullerLyer_15.0000_-0.4500.png,A,60.0,303870.0,0.494,arrowdown,arrowdown,0
23pubcvhh0,MullerLyer,-0.45,-3.0,MullerLyer_-3.0000_-0.4500.png,A,61.0,305020.0,0.482,arrowdown,arrowdown,0
23pubcvhh0,MullerLyer,-0.08716,-21.0,MullerLyer_-21.000_-0.08716.png,A,62.0,306201.0,0.467,arrowdown,arrowdown,0
23pubcvhh0,MullerLyer,0.08716,-21.0,MullerLyer_-21.000_0.08716.png,A,63.0,307409.0,0.429,arrowup,arrowup,0
23pubcvhh0,MullerLyer,-0.08716,15.0,MullerLyer_15.0000_-0.08716.png,A,64.0,308807.0,0.733,arrowup,arrowdown,1
23pubcvhh0,MullerLyer,0.45,-27.0,MullerLyer_-27.000_0.45000.png,A,65.0,310363.0,0.458,arrowup,arrowup,0
23pubcvhh0,MullerLyer,-0.18509,9.0,MullerLyer_9.00000_-0.18509.png,A,66.0,311654.0,0.453,arrowdown,arrowdown,0
23pubcvhh0,MullerLyer,0.45,3.0,MullerLyer_3.00000_0.45000.png,A,67.0,312978.0,0.443,arrowup,arrowup,0
23pubcvhh0,MullerLyer,-0.45,27.0,MullerLyer_27.0000_-0.4500.png,A,68.0,314326.0,0.491,arrowdown,arrowdown,0
23pubcvhh0,MullerLyer,-0.08716,21.0,MullerLyer_21.0000_-0.08716.png,A,69.0,315458.0,0.482,arrowup,arrowdown,1
23pubcvhh0,MullerLyer,0.18509,-21.0,MullerLyer_-21.000_0.18509.png,A,70.0,316669.0,0.544,arrowup,arrowup,0
23pubcvhh0,MullerLyer,-0.08716,-27.0,MullerLyer_-27.000_-0.08716.png,A,71.0,318003.0,0.419,arrowdown,arrowdown,0
23pubcvhh0,MullerLyer,0.18509,-27.0,MullerLyer_-27.000_0.18509.png,A,72.0,319370.0,0.436,arrowup,arrowup,0
23pubcvhh0,MullerLyer,-0.45,9.0,MullerLyer_9.00000_-0.4500.png,A,73.0,320704.0,0.506,arrowdown,arrowdown,0
23pubcvhh0,MullerLyer,0.08716,9.0,MullerLyer_9.00000_0.08716.png,A,74.0,322023.0,0.941,arrowdown,arrowup,1
23pubcvhh0,MullerLyer,-0.30447,-21.0,MullerLyer_-21.000_-0.30447.png,A,75.0,324038.0,0.437,arrowdown,arrowdown,0
23pubcvhh0,MullerLyer,-0.18509,-3.0,MullerLyer_-3.0000_-0.18509.png,A,76.0,325420.0,0.47,arrowdown,arrowdown,0
23pubcvhh0,MullerLyer,-0.30447,9.0,MullerLyer_9.00000_-0.30447.png,A,77.0,326658.0,0.473,arrowdown,arrowdown,0
23pubcvhh0,MullerLyer,0.18509,27.0,MullerLyer_27.0000_0.18509.png,A,78.0,327950.0,0.446,arrowdown,arrowup,1
23pubcvhh0,MullerLyer,0.18509,3.0,MullerLyer_3.00000_0.18509.png,A,79.0,329439.0,0.61,arrowup,arrowup,0
23pubcvhh0,MullerLyer,0.30447,-15.0,MullerLyer_-15.000_0.30447.png,A,80.0,330867.0,0.597,arrowup,arrowup,0
23pubcvhh0,Ebbinghaus,0.20566,-0.15,Ebbinghaus_-0.1500_0.20566.png,A,1.0,341118.0,0.826,arrowleft,arrowleft,0
23pubcvhh0,Ebbinghaus,-0.5,0.15,Ebbinghaus_0.15000_-0.5000.png,A,2.0,342609.0,0.536,arrowright,arrowright,0
23pubcvhh0,Ebbinghaus,0.20566,-1.35,Ebbinghaus_-1.3500_0.20566.png,A,3.0,344027.0,0.444,arrowright,arrowleft,1
23pubcvhh0,Ebbinghaus,0.5,-1.05,Ebbinghaus_-1.0500_0.50000.png,A,4.0,345102.0,0.823,arrowleft,arrowleft,0
23pubcvhh0,Ebbinghaus,-0.20566,-0.45,Ebbinghaus_-0.4500_-0.20566.png,A,5.0,346564.0,0.654,arrowright,arrowright,0
23pubcvhh0,Ebbinghaus,0.20566,1.35,Ebbinghaus_1.35000_0.20566.png,A,6.0,347900.0,1.081,arrowright,arrowleft,1
23pubcvhh0,Ebbinghaus,0.09684,1.05,Ebbinghaus_1.05000_0.09684.png,A,7.0,349749.0,0.536,arrowright,arrowleft,1
23pubcvhh0,Ebbinghaus,-0.5,1.05,Ebbinghaus_1.05000_-0.5000.png,A,8.0,350915.0,0.484,arrowright,arrowright,0
23pubcvhh0,Ebbinghaus,0.3383,-1.05,Ebbinghaus_-1.0500_0.33830.png,A,9.0,352075.0,0.655,arrowleft,arrowleft,0
23pubcvhh0,Ebbinghaus,0.09684,0.75,Ebbinghaus_0.75000_0.09684.png,A,10.0,353642.0,2.701,arrowleft,arrowleft,0
23pubcvhh0,Ebbinghaus,0.09684,-0.75,Ebbinghaus_-0.7500_0.09684.png,A,11.0,356977.0,1.19,arrowleft,arrowleft,0
23pubcvhh0,Ebbinghaus,-0.09684,-0.75,Ebbinghaus_-0.7500_-0.09684.png,A,12.0,359178.0,0.592,arrowright,arrowright,0
23pubcvhh0,Ebbinghaus,0.3383,-0.45,Ebbinghaus_-0.4500_0.33830.png,A,13.0,360838.0,0.9,arrowleft,arrowleft,0
23pubcvhh0,Ebbinghaus,0.5,-1.35,Ebbinghaus_-1.3500_0.50000.png,A,14.0,362513.0,0.587,arrowleft,arrowleft,0
23pubcvhh0,Ebbinghaus,0.20566,0.75,Ebbinghaus_0.75000_0.20566.png,A,15.0,363801.0,0.679,arrowright,arrowleft,1
23pubcvhh0,Ebbinghaus,0.20566,-0.45,Ebbinghaus_-0.4500_0.20566.png,A,16.0,365229.0,0.953,arrowleft,arrowleft,0
23pubcvhh0,Ebbinghaus,-0.20566,0.15,Ebbinghaus_0.15000_-0.20566.png,A,17.0,367095.0,0.59,arrowright,arrowright,0
23pubcvhh0,Ebbinghaus,-0.5,-0.75,Ebbinghaus_-0.7500_-0.5000.png,A,18.0,368557.0,0.568,arrowright,arrowright,0
23pubcvhh0,Ebbinghaus,0.20566,-0.75,Ebbinghaus_-0.7500_0.20566.png,A,19.0,369738.0,0.757,arrowleft,arrowleft,0
23pubcvhh0,Ebbinghaus,-0.20566,-1.35,Ebbinghaus_-1.3500_-0.20566.png,A,20.0,371380.0,0.751,arrowright,arrowright,0
23pubcvhh0,Ebbinghaus,0.3383,-1.35,Ebbinghaus_-1.3500_0.33830.png,A,21.0,373211.0,0.561,arrowleft,arrowleft,0
23pubcvhh0,Ebbinghaus,-0.09684,1.35,Ebbinghaus_1.35000_-0.09684.png,A,22.0,374626.0,0.65,arrowleft,arrowright,1
23pubcvhh0,Ebbinghaus,0.09684,-1.05,Ebbinghaus_-1.0500_0.09684.png,A,23.0,376274.0,0.54,arrowleft,arrowleft,0
23pubcvhh0,Ebbinghaus,-0.3383,0.15,Ebbinghaus_0.15000_-0.3383.png,A,24.0,377643.0,0.528,arrowright,arrowright,0
23pubcvhh0,Ebbinghaus,-0.09684,0.15,Ebbinghaus_0.15000_-0.09684.png,A,25.0,379207.0,0.928,arrowleft,arrowright,1
23pubcvhh0,Ebbinghaus,0.5,-0.75,Ebbinghaus_-0.7500_0.50000.png,A,26.0,380866.0,0.564,arrowleft,arrowleft,0
23pubcvhh0,Ebbinghaus,0.3383,1.35,Ebbinghaus_1.35000_0.33830.png,A,27.0,382279.0,0.522,arrowleft,arrowleft,0
23pubcvhh0,Ebbinghaus,0.5,0.45,Ebbinghaus_0.45000_0.50000.png,A,28.0,383599.0,0.499,arrowleft,arrowleft,0
23pubcvhh0,Ebbinghaus,-0.20566,-0.75,Ebbinghaus_-0.7500_-0.20566.png,A,29.0,384999.0,0.625,arrowright,arrowright,0
23pubcvhh0,Ebbinghaus,-0.3383,-1.35,Ebbinghaus_-1.3500_-0.3383.png,A,30.0,386317.0,0.536,arrowright,arrowright,0
23pubcvhh0,Ebbinghaus,-0.20566,1.05,Ebbinghaus_1.05000_-0.20566.png,A,31.0,387824.0,1.065,arrowleft,arrowright,1
23pubcvhh0,Ebbinghaus,-0.09684,0.45,Ebbinghaus_0.45000_-0.09684.png,A,32.0,389949.0,1.362,arrowright,arrowright,0
23pubcvhh0,Ebbinghaus,0.5,1.05,Ebbinghaus_1.05000_0.50000.png,A,33.0,392324.0,0.479,arrowleft,arrowleft,0
23pubcvhh0,Ebbinghaus,-0.20566,0.45,Ebbinghaus_0.45000_-0.20566.png,A,34.0,393504.0,0.792,arrowright,arrowright,0
23pubcvhh0,Ebbinghaus,0.20566,0.15,Ebbinghaus_0.15000_0.20566.png,A,35.0,395349.0,0.685,arrowleft,arrowleft,0
23pubcvhh0,Ebbinghaus,0.3383,0.75,Ebbinghaus_0.75000_0.33830.png,A,36.0,396776.0,0.722,arrowleft,arrowleft,0
23pubcvhh0,Ebbinghaus,-0.3383,-0.15,Ebbinghaus_-0.1500_-0.3383.png,A,37.0,398408.0,0.74,arrowright,arrowright,0
23pubcvhh0,Ebbinghaus,-0.09684,-1.05,Ebbinghaus_-1.0500_-0.09684.png,A,38.0,399837.0,1.01,arrowright,arrowright,0
23pubcvhh0,Ebbinghaus,-0.20566,-0.15,Ebbinghaus_-0.1500_-0.20566.png,A,39.0,401613.0,0.721,arrowright,arrowright,0
23pubcvhh0,Ebbinghaus,-0.5,-1.05,Ebbinghaus_-1.0500_-0.5000.png,A,40.0,403102.0,0.563,arrowright,arrowright,0
23pubcvhh0,Ebbinghaus,0.5,1.35,Ebbinghaus_1.35000_0.50000.png,A,41.0,404344.0,0.59,arrowleft,arrowleft,0
23pubcvhh0,Ebbinghaus,0.3383,1.05,Ebbinghaus_1.05000_0.33830.png,A,42.0,405745.0,1.846,arrowright,arrowleft,1
23pubcvhh0,Ebbinghaus,0.09684,-1.35,Ebbinghaus_-1.3500_0.09684.png,A,43.0,408544.0,0.979,arrowleft,arrowleft,0
23pubcvhh0,Ebbinghaus,0.09684,0.15,Ebbinghaus_0.15000_0.09684.png,A,44.0,410254.0,1.018,arrowright,arrowleft,1
23pubcvhh0,Ebbinghaus,0.5,0.15,Ebbinghaus_0.15000_0.50000.png,A,45.0,412207.0,0.486,arrowleft,arrowleft,0
23pubcvhh0,Ebbinghaus,0.5,-0.15,Ebbinghaus_-0.1500_0.50000.png,A,46.0,413650.0,0.54,arrowleft,arrowleft,0
23pubcvhh0,Ebbinghaus,0.3383,-0.75,Ebbinghaus_-0.7500_0.33830.png,A,47.0,415218.0,0.514,arrowleft,arrowleft,0
23pubcvhh0,Ebbinghaus,0.3383,0.45,Ebbinghaus_0.45000_0.33830.png,A,48.0,416772.0,0.493,arrowleft,arrowleft,0
23pubcvhh0,Ebbinghaus,-0.20566,0.75,Ebbinghaus_0.75000_-0.20566.png,A,49.0,418277.0,0.637,arrowright,arrowright,0
23pubcvhh0,Ebbinghaus,-0.5,-1.35,Ebbinghaus_-1.3500_-0.5000.png,A,50.0,420011.0,0.523,arrowright,arrowright,0
23pubcvhh0,Ebbinghaus,0.5,0.75,Ebbinghaus_0.75000_0.50000.png,A,51.0,421146.0,0.583,arrowleft,arrowleft,0
23pubcvhh0,Ebbinghaus,0.09684,-0.45,Ebbinghaus_-0.4500_0.09684.png,A,52.0,422638.0,0.668,arrowleft,arrowleft,0
23pubcvhh0,Ebbinghaus,0.3383,-0.15,Ebbinghaus_-0.1500_0.33830.png,A,53.0,424160.0,0.649,arrowleft,arrowleft,0
23pubcvhh0,Ebbinghaus,0.20566,0.45,Ebbinghaus_0.45000_0.20566.png,A,54.0,425469.0,0.503,arrowleft,arrowleft,0
23pubcvhh0,Ebbinghaus,-0.09684,1.05,Ebbinghaus_1.05000_-0.09684.png,A,55.0,426730.0,0.756,arrowleft,arrowright,1
23pubcvhh0,Ebbinghaus,0.09684,1.35,Ebbinghaus_1.35000_0.09684.png,A,56.0,428235.0,0.519,arrowleft,arrowleft,0
23pubcvhh0,Ebbinghaus,-0.20566,-1.05,Ebbinghaus_-1.0500_-0.20566.png,A,57.0,429851.0,0.5,arrowright,arrowright,0
23pubcvhh0,Ebbinghaus,0.09684,-0.15,Ebbinghaus_-0.1500_0.09684.png,A,58.0,431264.0,0.714,arrowleft,arrowleft,0
23pubcvhh0,Ebbinghaus,-0.5,-0.45,Ebbinghaus_-0.4500_-0.5000.png,A,59.0,432691.0,0.487,arrowright,arrowright,0
23pubcvhh0,Ebbinghaus,-0.5,1.35,Ebbinghaus_1.35000_-0.5000.png,A,60.0,434100.0,1.362,arrowright,arrowright,0
23pubcvhh0,Ebbinghaus,0.3383,0.15,Ebbinghaus_0.15000_0.33830.png,A,61.0,436532.0,0.522,arrowleft,arrowleft,0
23pubcvhh0,Ebbinghaus,0.09684,0.45,Ebbinghaus_0.45000_0.09684.png,A,62.0,437959.0,0.527,arrowright,arrowleft,1
23pubcvhh0,Ebbinghaus,-0.09684,0.75,Ebbinghaus_0.75000_-0.09684.png,A,63.0,439168.0,0.703,arrowright,arrowright,0
23pubcvhh0,Ebbinghaus,-0.5,-0.15,Ebbinghaus_-0.1500_-0.5000.png,A,64.0,440685.0,0.628,arrowright,arrowright,0
23pubcvhh0,Ebbinghaus,-0.09684,-0.15,Ebbinghaus_-0.1500_-0.09684.png,A,65.0,442250.0,0.637,arrowright,arrowright,0
23pubcvhh0,Ebbinghaus,-0.3383,0.75,Ebbinghaus_0.75000_-0.3383.png,A,66.0,443880.0,0.92,arrowright,arrowright,0
23pubcvhh0,Ebbinghaus,-0.3383,-0.75,Ebbinghaus_-0.7500_-0.3383.png,A,67.0,445777.0,0.687,arrowright,arrowright,0
23pubcvhh0,Ebbinghaus,-0.3383,-0.45,Ebbinghaus_-0.4500_-0.3383.png,A,68.0,447095.0,0.624,arrowright,arrowright,0
23pubcvhh0,Ebbinghaus,-0.09684,-0.45,Ebbinghaus_-0.4500_-0.09684.png,A,69.0,448554.0,0.942,arrowright,arrowright,0
23pubcvhh0,Ebbinghaus,-0.5,0.75,Ebbinghaus_0.75000_-0.5000.png,A,70.0,450152.0,0.462,arrowright,arrowright,0
23pubcvhh0,Ebbinghaus,-0.3383,1.35,Ebbinghaus_1.35000_-0.3383.png,A,71.0,451615.0,0.664,arrowleft,arrowright,1
23pubcvhh0,Ebbinghaus,0.20566,-1.05,Ebbinghaus_-1.0500_0.20566.png,A,72.0,453370.0,0.603,arrowleft,arrowleft,0
23pubcvhh0,Ebbinghaus,0.20566,1.05,Ebbinghaus_1.05000_0.20566.png,A,73.0,454832.0,0.758,arrowright,arrowleft,1
23pubcvhh0,Ebbinghaus,-0.3383,1.05,Ebbinghaus_1.05000_-0.3383.png,A,74.0,456616.0,1.169,arrowright,arrowright,0
23pubcvhh0,Ebbinghaus,-0.3383,0.45,Ebbinghaus_0.45000_-0.3383.png,A,75.0,458459.0,0.791,arrowright,arrowright,0
23pubcvhh0,Ebbinghaus,-0.3383,-1.05,Ebbinghaus_-1.0500_-0.3383.png,A,76.0,459996.0,0.488,arrowright,arrowright,0
23pubcvhh0,Ebbinghaus,-0.20566,1.35,Ebbinghaus_1.35000_-0.20566.png,A,77.0,461516.0,0.574,arrowleft,arrowright,1
23pubcvhh0,Ebbinghaus,-0.09684,-1.35,Ebbinghaus_-1.3500_-0.09684.png,A,78.0,462948.0,0.511,arrowright,arrowright,0
23pubcvhh0,Ebbinghaus,-0.5,0.45,Ebbinghaus_0.45000_-0.5000.png,A,79.0,464564.0,0.512,arrowright,arrowright,0
23pubcvhh0,Ebbinghaus,0.5,-0.45,Ebbinghaus_-0.4500_0.50000.png,A,80.0,466065.0,0.502,arrowleft,arrowleft,0
23pubcvhh0,VerticalHorizontal,-0.20298,-4.5,VerticalHorizontal_-4.5000_-0.20298.png,A,1.0,3674916.0,0.708,arrowright,arrowright,0
23pubcvhh0,VerticalHorizontal,-0.3,13.5,VerticalHorizontal_13.5000_-0.3000.png,A,2.0,3676718.0,0.445,arrowright,arrowright,0
23pubcvhh0,VerticalHorizontal,0.0581,-40.5,VerticalHorizontal_-40.500_0.05810.png,A,3.0,3678190.0,0.46,arrowleft,arrowleft,0
23pubcvhh0,VerticalHorizontal,-0.3,-4.5,VerticalHorizontal_-4.5000_-0.3000.png,A,4.0,3679466.0,0.463,arrowright,arrowright,0
23pubcvhh0,VerticalHorizontal,0.0581,-22.5,VerticalHorizontal_-22.500_0.05810.png,A,5.0,3680834.0,0.404,arrowleft,arrowleft,0
23pubcvhh0,VerticalHorizontal,0.0581,-4.5,VerticalHorizontal_-4.5000_0.05810.png,A,6.0,3682151.0,0.41,arrowleft,arrowleft,0
23pubcvhh0,VerticalHorizontal,0.3,-22.5,VerticalHorizontal_-22.500_0.30000.png,A,7.0,3683252.0,0.428,arrowleft,arrowleft,0
23pubcvhh0,VerticalHorizontal,-0.12339,22.5,VerticalHorizontal_22.5000_-0.12339.png,A,8.0,3684434.0,0.378,arrowleft,arrowright,1
23pubcvhh0,VerticalHorizontal,0.0581,-13.5,VerticalHorizontal_-13.500_0.05810.png,A,9.0,3685862.0,0.653,arrowleft,arrowleft,0
23pubcvhh0,VerticalHorizontal,0.12339,4.5,VerticalHorizontal_4.50000_0.12339.png,A,10.0,3687420.0,0.601,arrowright,arrowleft,1
23pubcvhh0,VerticalHorizontal,0.0581,-31.5,VerticalHorizontal_-31.500_0.05810.png,A,11.0,3688711.0,0.476,arrowleft,arrowleft,0
23pubcvhh0,VerticalHorizontal,0.12339,31.5,VerticalHorizontal_31.5000_0.12339.png,A,12.0,3690064.0,1.039,arrowleft,arrowleft,0
23pubcvhh0,VerticalHorizontal,0.20298,40.5,VerticalHorizontal_40.5000_0.20298.png,A,13.0,3691841.0,0.937,arrowright,arrowleft,1
23pubcvhh0,VerticalHorizontal,-0.20298,22.5,VerticalHorizontal_22.5000_-0.20298.png,A,14.0,3693616.0,0.836,arrowleft,arrowright,1
23pubcvhh0,VerticalHorizontal,-0.3,-22.5,VerticalHorizontal_-22.500_-0.3000.png,A,15.0,3695444.0,0.41,arrowright,arrowright,0
23pubcvhh0,VerticalHorizontal,0.12339,-40.5,VerticalHorizontal_-40.500_0.12339.png,A,16.0,3696859.0,0.423,arrowleft,arrowleft,0
23pubcvhh0,VerticalHorizontal,-0.3,22.5,VerticalHorizontal_22.5000_-0.3000.png,A,17.0,3698203.0,0.816,arrowright,arrowright,0
23pubcvhh0,VerticalHorizontal,-0.20298,13.5,VerticalHorizontal_13.5000_-0.20298.png,A,18.0,3699712.0,0.533,arrowright,arrowright,0
23pubcvhh0,VerticalHorizontal,-0.3,31.5,VerticalHorizontal_31.5000_-0.3000.png,A,19.0,3701311.0,0.748,arrowright,arrowright,0
23pubcvhh0,VerticalHorizontal,-0.20298,4.5,VerticalHorizontal_4.50000_-0.20298.png,A,20.0,3703085.0,0.758,arrowright,arrowright,0
23pubcvhh0,VerticalHorizontal,0.0581,13.5,VerticalHorizontal_13.5000_0.05810.png,A,21.0,3704670.0,0.459,arrowleft,arrowleft,0
23pubcvhh0,VerticalHorizontal,0.0581,22.5,VerticalHorizontal_22.5000_0.05810.png,A,22.0,3706051.0,0.422,arrowright,arrowleft,1
23pubcvhh0,VerticalHorizontal,-0.3,-31.5,VerticalHorizontal_-31.500_-0.3000.png,A,23.0,3707134.0,0.61,arrowright,arrowright,0
23pubcvhh0,VerticalHorizontal,-0.20298,-13.5,VerticalHorizontal_-13.500_-0.20298.png,A,24.0,3708721.0,0.515,arrowright,arrowright,0
23pubcvhh0,VerticalHorizontal,-0.12339,-40.5,VerticalHorizontal_-40.500_-0.12339.png,A,25.0,3709981.0,0.356,arrowright,arrowright,0
23pubcvhh0,VerticalHorizontal,-0.12339,-4.5,VerticalHorizontal_-4.5000_-0.12339.png,A,26.0,3711395.0,0.538,arrowright,arrowright,0
23pubcvhh0,VerticalHorizontal,0.0581,31.5,VerticalHorizontal_31.5000_0.05810.png,A,27.0,3712714.0,0.433,arrowright,arrowleft,1
23pubcvhh0,VerticalHorizontal,0.0581,40.5,VerticalHorizontal_40.5000_0.05810.png,A,28.0,3713775.0,0.707,arrowright,arrowleft,1
23pubcvhh0,VerticalHorizontal,0.12339,22.5,VerticalHorizontal_22.5000_0.12339.png,A,29.0,3715142.0,0.81,arrowleft,arrowleft,0
23pubcvhh0,VerticalHorizontal,0.3,-40.5,VerticalHorizontal_-40.500_0.30000.png,A,30.0,3716680.0,0.493,arrowleft,arrowleft,0
23pubcvhh0,VerticalHorizontal,0.3,-31.5,VerticalHorizontal_-31.500_0.30000.png,A,31.0,3717967.0,0.375,arrowleft,arrowleft,0
23pubcvhh0,VerticalHorizontal,0.20298,31.5,VerticalHorizontal_31.5000_0.20298.png,A,32.0,3719225.0,0.44,arrowright,arrowleft,1
23pubcvhh0,VerticalHorizontal,0.3,-13.5,VerticalHorizontal_-13.500_0.30000.png,A,33.0,3720308.0,0.47,arrowleft,arrowleft,0
23pubcvhh0,VerticalHorizontal,0.20298,-22.5,VerticalHorizontal_-22.500_0.20298.png,A,34.0,3721694.0,0.5,arrowleft,arrowleft,0
23pubcvhh0,VerticalHorizontal,-0.0581,-22.5,VerticalHorizontal_-22.500_-0.0581.png,A,35.0,3723157.0,0.486,arrowleft,arrowright,1
23pubcvhh0,VerticalHorizontal,0.20298,-13.5,VerticalHorizontal_-13.500_0.20298.png,A,36.0,3724431.0,0.47,arrowleft,arrowleft,0
23pubcvhh0,VerticalHorizontal,-0.0581,22.5,VerticalHorizontal_22.5000_-0.0581.png,A,37.0,3725705.0,1.062,arrowright,arrowright,0
23pubcvhh0,VerticalHorizontal,0.20298,-31.5,VerticalHorizontal_-31.500_0.20298.png,A,38.0,3727494.0,0.462,arrowleft,arrowleft,0
23pubcvhh0,VerticalHorizontal,-0.12339,-31.5,VerticalHorizontal_-31.500_-0.12339.png,A,39.0,3728802.0,0.435,arrowright,arrowright,0
23pubcvhh0,VerticalHorizontal,-0.0581,-31.5,VerticalHorizontal_-31.500_-0.0581.png,A,40.0,3730283.0,0.449,arrowright,arrowright,0
23pubcvhh0,VerticalHorizontal,-0.0581,40.5,VerticalHorizontal_40.5000_-0.0581.png,A,41.0,3731759.0,0.42,arrowleft,arrowright,1
23pubcvhh0,VerticalHorizontal,-0.0581,4.5,VerticalHorizontal_4.50000_-0.0581.png,A,42.0,3733109.0,1.114,arrowright,arrowright,0
23pubcvhh0,VerticalHorizontal,0.20298,-40.5,VerticalHorizontal_-40.500_0.20298.png,A,43.0,3735104.0,0.477,arrowleft,arrowleft,0
23pubcvhh0,VerticalHorizontal,0.0581,4.5,VerticalHorizontal_4.50000_0.05810.png,A,44.0,3736333.0,0.584,arrowleft,arrowleft,0
23pubcvhh0,VerticalHorizontal,0.3,40.5,VerticalHorizontal_40.5000_0.30000.png,A,45.0,3737784.0,0.994,arrowleft,arrowleft,0
23pubcvhh0,VerticalHorizontal,0.12339,13.5,VerticalHorizontal_13.5000_0.12339.png,A,46.0,3739576.0,0.846,arrowleft,arrowleft,0
23pubcvhh0,VerticalHorizontal,-0.12339,13.5,VerticalHorizontal_13.5000_-0.12339.png,A,47.0,3741158.0,0.472,arrowright,arrowright,0
23pubcvhh0,VerticalHorizontal,0.12339,40.5,VerticalHorizontal_40.5000_0.12339.png,A,48.0,3742476.0,0.443,arrowright,arrowleft,1
23pubcvhh0,VerticalHorizontal,-0.12339,31.5,VerticalHorizontal_31.5000_-0.12339.png,A,49.0,3743760.0,0.676,arrowleft,arrowright,1
23pubcvhh0,VerticalHorizontal,0.3,-4.5,VerticalHorizontal_-4.5000_0.30000.png,A,50.0,3745369.0,0.423,arrowleft,arrowleft,0
23pubcvhh0,VerticalHorizontal,-0.20298,-40.5,VerticalHorizontal_-40.500_-0.20298.png,A,51.0,3746581.0,0.42,arrowright,arrowright,0
23pubcvhh0,VerticalHorizontal,-0.0581,13.5,VerticalHorizontal_13.5000_-0.0581.png,A,52.0,3747918.0,0.392,arrowleft,arrowright,1
23pubcvhh0,VerticalHorizontal,0.20298,4.5,VerticalHorizontal_4.50000_0.20298.png,A,53.0,3749405.0,1.197,arrowright,arrowleft,1
23pubcvhh0,VerticalHorizontal,0.20298,22.5,VerticalHorizontal_22.5000_0.20298.png,A,54.0,3751606.0,0.715,arrowleft,arrowleft,0
23pubcvhh0,VerticalHorizontal,0.12339,-22.5,VerticalHorizontal_-22.500_0.12339.png,A,55.0,3753237.0,1.217,arrowleft,arrowleft,0
23pubcvhh0,VerticalHorizontal,-0.12339,40.5,VerticalHorizontal_40.5000_-0.12339.png,A,56.0,3755526.0,0.425,arrowleft,arrowright,1
23pubcvhh0,VerticalHorizontal,-0.20298,31.5,VerticalHorizontal_31.5000_-0.20298.png,A,57.0,3756968.0,0.597,arrowleft,arrowright,1
23pubcvhh0,VerticalHorizontal,-0.3,-13.5,VerticalHorizontal_-13.500_-0.3000.png,A,58.0,3758394.0,0.508,arrowright,arrowright,0
23pubcvhh0,VerticalHorizontal,-0.0581,-13.5,VerticalHorizontal_-13.500_-0.0581.png,A,59.0,3759541.0,0.498,arrowright,arrowright,0
23pubcvhh0,VerticalHorizontal,-0.0581,31.5,VerticalHorizontal_31.5000_-0.0581.png,A,60.0,3760817.0,0.531,arrowleft,arrowright,1
23pubcvhh0,VerticalHorizontal,-0.20298,-22.5,VerticalHorizontal_-22.500_-0.20298.png,A,61.0,3762160.0,0.429,arrowright,arrowright,0
23pubcvhh0,VerticalHorizontal,0.12339,-4.5,VerticalHorizontal_-4.5000_0.12339.png,A,62.0,3763507.0,0.587,arrowleft,arrowleft,0
23pubcvhh0,VerticalHorizontal,0.3,13.5,VerticalHorizontal_13.5000_0.30000.png,A,63.0,3764967.0,0.484,arrowleft,arrowleft,0
23pubcvhh0,VerticalHorizontal,0.3,4.5,VerticalHorizontal_4.50000_0.30000.png,A,64.0,3766082.0,0.414,arrowleft,arrowleft,0
23pubcvhh0,VerticalHorizontal,0.3,31.5,VerticalHorizontal_31.5000_0.30000.png,A,65.0,3767447.0,0.416,arrowright,arrowleft,1
23pubcvhh0,VerticalHorizontal,-0.12339,-22.5,VerticalHorizontal_-22.500_-0.12339.png,A,66.0,3768659.0,0.491,arrowright,arrowright,0
23pubcvhh0,VerticalHorizontal,-0.3,40.5,VerticalHorizontal_40.5000_-0.3000.png,A,67.0,3769973.0,0.58,arrowright,arrowright,0
23pubcvhh0,VerticalHorizontal,0.20298,13.5,VerticalHorizontal_13.5000_0.20298.png,A,68.0,3771513.0,0.621,arrowleft,arrowleft,0
23pubcvhh0,VerticalHorizontal,-0.0581,-4.5,VerticalHorizontal_-4.5000_-0.0581.png,A,69.0,3772917.0,0.652,arrowright,arrowright,0
23pubcvhh0,VerticalHorizontal,0.3,22.5,VerticalHorizontal_22.5000_0.30000.png,A,70.0,3774679.0,0.79,arrowleft,arrowleft,0
23pubcvhh0,VerticalHorizontal,0.12339,-13.5,VerticalHorizontal_-13.500_0.12339.png,A,71.0,3776351.0,0.463,arrowleft,arrowleft,0
23pubcvhh0,VerticalHorizontal,0.12339,-31.5,VerticalHorizontal_-31.500_0.12339.png,A,72.0,3777848.0,0.389,arrowright,arrowleft,1
23pubcvhh0,VerticalHorizontal,-0.12339,4.5,VerticalHorizontal_4.50000_-0.12339.png,A,73.0,3779104.0,0.629,arrowright,arrowright,0
23pubcvhh0,VerticalHorizontal,-0.12339,-13.5,VerticalHorizontal_-13.500_-0.12339.png,A,74.0,3780354.0,0.566,arrowright,arrowright,0
23pubcvhh0,VerticalHorizontal,-0.20298,40.5,VerticalHorizontal_40.5000_-0.20298.png,A,75.0,3781770.0,0.463,arrowleft,arrowright,1
23pubcvhh0,VerticalHorizontal,-0.3,4.5,VerticalHorizontal_4.50000_-0.3000.png,A,76.0,3783284.0,0.637,arrowright,arrowright,0
23pubcvhh0,VerticalHorizontal,-0.0581,-40.5,VerticalHorizontal_-40.500_-0.0581.png,A,77.0,3784832.0,0.412,arrowright,arrowright,0
23pubcvhh0,VerticalHorizontal,-0.3,-40.5,VerticalHorizontal_-40.500_-0.3000.png,A,78.0,3786228.0,0.429,arrowright,arrowright,0
23pubcvhh0,VerticalHorizontal,-0.20298,-31.5,VerticalHorizontal_-31.500_-0.20298.png,A,79.0,3787596.0,0.448,arrowright,arrowright,0
23pubcvhh0,VerticalHorizontal,0.20298,-4.5,VerticalHorizontal_-4.5000_0.20298.png,A,80.0,3789107.0,0.564,arrowleft,arrowleft,0
23pubcvhh0,MullerLyer,-0.045,-6.0,MullerLyer_-6.0000_-0.0450.png,B,1.0,10363575.0,0.728,arrowdown,arrowdown,0
23pubcvhh0,MullerLyer,-0.1337,-12.0,MullerLyer_-12.000_-0.1337.png,B,2.0,10365040.0,1.592,arrowup,arrowdown,1
23pubcvhh0,MullerLyer,0.24183,18.0,MullerLyer_18.0000_0.24183.png,B,3.0,10367456.0,1.269,arrowup,arrowup,0
23pubcvhh0,MullerLyer,-0.1337,-6.0,MullerLyer_-6.0000_-0.1337.png,B,4.0,10369541.0,0.621,arrowdown,arrowdown,0
23pubcvhh0,MullerLyer,0.045,30.0,MullerLyer_30.0000_0.04500.png,B,5.0,10371052.0,0.464,arrowdown,arrowup,1
23pubcvhh0,MullerLyer,-0.37364,-30.0,MullerLyer_-30.000_-0.37364.png,B,6.0,10372309.0,0.447,arrowdown,arrowdown,0
23pubcvhh0,MullerLyer,-0.37364,18.0,MullerLyer_18.0000_-0.37364.png,B,7.0,10373817.0,0.487,arrowdown,arrowdown,0
23pubcvhh0,MullerLyer,-0.24183,-24.0,MullerLyer_-24.000_-0.24183.png,B,8.0,10375156.0,0.56,arrowdown,arrowdown,0
23pubcvhh0,MullerLyer,0.1337,-30.0,MullerLyer_-30.000_0.13370.png,B,9.0,10376367.0,0.526,arrowup,arrowup,0
23pubcvhh0,MullerLyer,0.1337,24.0,MullerLyer_24.0000_0.13370.png,B,10.0,10377609.0,0.504,arrowdown,arrowup,1
23pubcvhh0,MullerLyer,0.1337,18.0,MullerLyer_18.0000_0.13370.png,B,11.0,10378815.0,0.507,arrowdown,arrowup,1
23pubcvhh0,MullerLyer,0.24183,6.0,MullerLyer_6.00000_0.24183.png,B,12.0,10379993.0,0.71,arrowup,arrowup,0
23pubcvhh0,MullerLyer,0.1337,6.0,MullerLyer_6.00000_0.13370.png,B,13.0,10381597.0,0.814,arrowup,arrowup,0
23pubcvhh0,MullerLyer,-0.1337,18.0,MullerLyer_18.0000_-0.1337.png,B,14.0,10383067.0,0.545,arrowup,arrowdown,1
23pubcvhh0,MullerLyer,0.1337,-18.0,MullerLyer_-18.000_0.13370.png,B,15.0,10384233.0,0.709,arrowup,arrowup,0
23pubcvhh0,MullerLyer,0.37364,6.0,MullerLyer_6.00000_0.37364.png,B,16.0,10385898.0,0.459,arrowup,arrowup,0
23pubcvhh0,MullerLyer,0.24183,-30.0,MullerLyer_-30.000_0.24183.png,B,17.0,10387063.0,0.341,arrowup,arrowup,0
23pubcvhh0,MullerLyer,0.1337,-6.0,MullerLyer_-6.0000_0.13370.png,B,18.0,10388489.0,0.517,arrowup,arrowup,0
23pubcvhh0,MullerLyer,0.1337,-24.0,MullerLyer_-24.000_0.13370.png,B,19.0,10389855.0,0.37,arrowup,arrowup,0
23pubcvhh0,MullerLyer,-0.045,-30.0,MullerLyer_-30.000_-0.0450.png,B,20.0,10391219.0,1.271,arrowdown,arrowdown,0
23pubcvhh0,MullerLyer,0.37364,-30.0,MullerLyer_-30.000_0.37364.png,B,21.0,10393283.0,0.592,arrowup,arrowup,0
23pubcvhh0,MullerLyer,0.24183,-12.0,MullerLyer_-12.000_0.24183.png,B,22.0,10394618.0,1.496,arrowup,arrowup,0
23pubcvhh0,MullerLyer,0.24183,30.0,MullerLyer_30.0000_0.24183.png,B,23.0,10396864.0,0.608,arrowdown,arrowup,1
23pubcvhh0,MullerLyer,0.37364,30.0,MullerLyer_30.0000_0.37364.png,B,24.0,10398317.0,0.532,arrowup,arrowup,0
23pubcvhh0,MullerLyer,0.045,12.0,MullerLyer_12.0000_0.04500.png,B,25.0,10399819.0,0.458,arrowdown,arrowup,1
23pubcvhh0,MullerLyer,-0.37364,-6.0,MullerLyer_-6.0000_-0.37364.png,B,26.0,10401297.0,0.484,arrowdown,arrowdown,0
23pubcvhh0,MullerLyer,-0.24183,12.0,MullerLyer_12.0000_-0.24183.png,B,27.0,10402875.0,0.947,arrowdown,arrowdown,0
23pubcvhh0,MullerLyer,-0.24183,18.0,MullerLyer_18.0000_-0.24183.png,B,28.0,10404678.0,0.89,arrowup,arrowdown,1
23pubcvhh0,MullerLyer,-0.24183,24.0,MullerLyer_24.0000_-0.24183.png,B,29.0,10406482.0,0.781,arrowup,arrowdown,1
23pubcvhh0,MullerLyer,0.045,-24.0,MullerLyer_-24.000_0.04500.png,B,30.0,10408157.0,0.624,arrowup,arrowup,0
23pubcvhh0,MullerLyer,0.37364,-24.0,MullerLyer_-24.000_0.37364.png,B,31.0,10409511.0,0.515,arrowup,arrowup,0
23pubcvhh0,MullerLyer,-0.045,12.0,MullerLyer_12.0000_-0.0450.png,B,32.0,10410732.0,0.964,arrowup,arrowdown,1
23pubcvhh0,MullerLyer,-0.37364,30.0,MullerLyer_30.0000_-0.37364.png,B,33.0,10412377.0,1.219,arrowdown,arrowdown,0
23pubcvhh0,MullerLyer,-0.045,18.0,MullerLyer_18.0000_-0.0450.png,B,34.0,10414287.0,0.567,arrowup,arrowdown,1
23pubcvhh0,MullerLyer,0.37364,12.0,MullerLyer_12.0000_0.37364.png,B,35.0,10415601.0,0.498,arrowup,arrowup,0
23pubcvhh0,MullerLyer,-0.045,-12.0,MullerLyer_-12.000_-0.0450.png,B,36.0,10417013.0,0.457,arrowdown,arrowdown,0
23pubcvhh0,MullerLyer,0.045,-6.0,MullerLyer_-6.0000_0.04500.png,B,37.0,10418306.0,0.619,arrowup,arrowup,0
23pubcvhh0,MullerLyer,-0.37364,-24.0,MullerLyer_-24.000_-0.37364.png,B,38.0,10419982.0,0.499,arrowdown,arrowdown,0
23pubcvhh0,MullerLyer,0.045,24.0,MullerLyer_24.0000_0.04500.png,B,39.0,10421117.0,0.503,arrowdown,arrowup,1
23pubcvhh0,MullerLyer,0.37364,18.0,MullerLyer_18.0000_0.37364.png,B,40.0,10422547.0,0.538,arrowup,arrowup,0
23pubcvhh0,MullerLyer,-0.37364,6.0,MullerLyer_6.00000_-0.37364.png,B,41.0,10423695.0,0.601,arrowdown,arrowdown,0
23pubcvhh0,MullerLyer,0.37364,24.0,MullerLyer_24.0000_0.37364.png,B,42.0,10425143.0,0.861,arrowup,arrowup,0
23pubcvhh0,MullerLyer,0.37364,-12.0,MullerLyer_-12.000_0.37364.png,B,43.0,10426789.0,0.606,arrowup,arrowup,0
23pubcvhh0,MullerLyer,-0.24183,-6.0,MullerLyer_-6.0000_-0.24183.png,B,44.0,10428421.0,0.616,arrowdown,arrowdown,0
23pubcvhh0,MullerLyer,-0.045,24.0,MullerLyer_24.0000_-0.0450.png,B,45.0,10429787.0,0.611,arrowup,arrowdown,1
23pubcvhh0,MullerLyer,0.045,-18.0,MullerLyer_-18.000_0.04500.png,B,46.0,10431305.0,0.473,arrowup,arrowup,0
23pubcvhh0,MullerLyer,0.24183,-18.0,MullerLyer_-18.000_0.24183.png,B,47.0,10432659.0,0.505,arrowup,arrowup,0
23pubcvhh0,MullerLyer,0.37364,-6.0,MullerLyer_-6.0000_0.37364.png,B,48.0,10433842.0,0.519,arrowup,arrowup,0
23pubcvhh0,MullerLyer,0.045,18.0,MullerLyer_18.0000_0.04500.png,B,49.0,10435446.0,0.792,arrowdown,arrowup,1
23pubcvhh0,MullerLyer,-0.37364,24.0,MullerLyer_24.0000_-0.37364.png,B,50.0,10437095.0,0.939,arrowdown,arrowdown,0
23pubcvhh0,MullerLyer,-0.1337,-18.0,MullerLyer_-18.000_-0.1337.png,B,51.0,10438681.0,0.614,arrowdown,arrowdown,0
23pubcvhh0,MullerLyer,0.24183,-6.0,MullerLyer_-6.0000_0.24183.png,B,52.0,10440149.0,0.715,arrowup,arrowup,0
23pubcvhh0,MullerLyer,0.045,-30.0,MullerLyer_-30.000_0.04500.png,B,53.0,10441749.0,0.487,arrowup,arrowup,0
23pubcvhh0,MullerLyer,-0.24183,6.0,MullerLyer_6.00000_-0.24183.png,B,54.0,10443225.0,0.473,arrowdown,arrowdown,0
23pubcvhh0,MullerLyer,-0.37364,-12.0,MullerLyer_-12.000_-0.37364.png,B,55.0,10444331.0,0.806,arrowdown,arrowdown,0
23pubcvhh0,MullerLyer,-0.1337,-30.0,MullerLyer_-30.000_-0.1337.png,B,56.0,10446064.0,0.442,arrowdown,arrowdown,0
23pubcvhh0,MullerLyer,0.24183,12.0,MullerLyer_12.0000_0.24183.png,B,57.0,10447334.0,0.602,arrowup,arrowup,0
23pubcvhh0,MullerLyer,0.24183,24.0,MullerLyer_24.0000_0.24183.png,B,58.0,10448762.0,0.446,arrowdown,arrowup,1
23pubcvhh0,MullerLyer,0.1337,12.0,MullerLyer_12.0000_0.13370.png,B,59.0,10450302.0,1.101,arrowup,arrowup,0
23pubcvhh0,MullerLyer,-0.37364,12.0,MullerLyer_12.0000_-0.37364.png,B,60.0,10452197.0,0.52,arrowdown,arrowdown,0
23pubcvhh0,MullerLyer,-0.045,-18.0,MullerLyer_-18.000_-0.0450.png,B,61.0,10453597.0,0.476,arrowdown,arrowdown,0
23pubcvhh0,MullerLyer,-0.24183,-18.0,MullerLyer_-18.000_-0.24183.png,B,62.0,10454949.0,0.459,arrowdown,arrowdown,0
23pubcvhh0,MullerLyer,0.045,6.0,MullerLyer_6.00000_0.04500.png,B,63.0,10456175.0,1.034,arrowup,arrowup,0
23pubcvhh0,MullerLyer,-0.1337,24.0,MullerLyer_24.0000_-0.1337.png,B,64.0,10457838.0,1.108,arrowdown,arrowdown,0
23pubcvhh0,MullerLyer,0.1337,30.0,MullerLyer_30.0000_0.13370.png,B,65.0,10460042.0,0.586,arrowdown,arrowup,1
23pubcvhh0,MullerLyer,0.1337,-12.0,MullerLyer_-12.000_0.13370.png,B,66.0,10461624.0,0.583,arrowup,arrowup,0
23pubcvhh0,MullerLyer,-0.045,6.0,MullerLyer_6.00000_-0.0450.png,B,67.0,10462944.0,0.56,arrowup,arrowdown,1
23pubcvhh0,MullerLyer,-0.24183,-30.0,MullerLyer_-30.000_-0.24183.png,B,68.0,10464466.0,0.501,arrowdown,arrowdown,0
23pubcvhh0,MullerLyer,-0.1337,12.0,MullerLyer_12.0000_-0.1337.png,B,69.0,10465721.0,0.72,arrowup,arrowdown,1
23pubcvhh0,MullerLyer,0.37364,-18.0,MullerLyer_-18.000_0.37364.png,B,70.0,10467414.0,0.511,arrowup,arrowup,0
23pubcvhh0,MullerLyer,-0.1337,30.0,MullerLyer_30.0000_-0.1337.png,B,71.0,10468550.0,0.481,arrowup,arrowdown,1
23pubcvhh0,MullerLyer,0.24183,-24.0,MullerLyer_-24.000_0.24183.png,B,72.0,10469667.0,0.617,arrowup,arrowup,0
23pubcvhh0,MullerLyer,-0.24183,30.0,MullerLyer_30.0000_-0.24183.png,B,73.0,10471217.0,0.845,arrowup,arrowdown,1
23pubcvhh0,MullerLyer,-0.1337,6.0,MullerLyer_6.00000_-0.1337.png,B,74.0,10472708.0,0.749,arrowdown,arrowdown,0
23pubcvhh0,MullerLyer,-0.24183,-12.0,MullerLyer_-12.000_-0.24183.png,B,75.0,10474170.0,0.508,arrowdown,arrowdown,0
23pubcvhh0,MullerLyer,-0.045,30.0,MullerLyer_30.0000_-0.0450.png,B,76.0,10475550.0,0.528,arrowup,arrowdown,1
23pubcvhh0,MullerLyer,-0.37364,-18.0,MullerLyer_-18.000_-0.37364.png,B,77.0,10477043.0,0.5,arrowdown,arrowdown,0
23pubcvhh0,MullerLyer,-0.1337,-24.0,MullerLyer_-24.000_-0.1337.png,B,78.0,10478491.0,0.45,arrowdown,arrowdown,0
23pubcvhh0,MullerLyer,-0.045,-24.0,MullerLyer_-24.000_-0.0450.png,B,79.0,10479906.0,0.492,arrowdown,arrowdown,0
23pubcvhh0,MullerLyer,0.045,-12.0,MullerLyer_-12.000_0.04500.png,B,80.0,10481351.0,0.617,arrowup,arrowup,0
23pubcvhh0,Ebbinghaus,-0.14856,-0.3,Ebbinghaus_-0.3000_-0.14856.png,B,1.0,10493203.0,0.815,arrowright,arrowright,0
23pubcvhh0,Ebbinghaus,-0.2687,0.3,Ebbinghaus_0.30000_-0.2687.png,B,2.0,10494636.0,0.521,arrowright,arrowright,0
23pubcvhh0,Ebbinghaus,-0.14856,-1.2,Ebbinghaus_-1.2000_-0.14856.png,B,3.0,10495861.0,0.454,arrowright,arrowright,0
23pubcvhh0,Ebbinghaus,-0.2687,-0.3,Ebbinghaus_-0.3000_-0.2687.png,B,4.0,10497161.0,0.615,arrowright,arrowright,0
23pubcvhh0,Ebbinghaus,-0.41515,0.6,Ebbinghaus_0.60000_-0.41515.png,B,5.0,10498855.0,0.595,arrowright,arrowright,0
23pubcvhh0,Ebbinghaus,0.05,-0.3,Ebbinghaus_-0.3000_0.05000.png,B,6.0,10500329.0,0.964,arrowleft,arrowleft,0
23pubcvhh0,Ebbinghaus,0.05,-1.2,Ebbinghaus_-1.2000_0.05000.png,B,7.0,10502222.0,0.56,arrowleft,arrowleft,0
23pubcvhh0,Ebbinghaus,0.14856,0.3,Ebbinghaus_0.30000_0.14856.png,B,8.0,10503638.0,0.732,arrowleft,arrowleft,0
23pubcvhh0,Ebbinghaus,-0.14856,-1.5,Ebbinghaus_-1.5000_-0.14856.png,B,9.0,10504991.0,0.528,arrowleft,arrowright,1
23pubcvhh0,Ebbinghaus,0.05,0.6,Ebbinghaus_0.60000_0.05000.png,B,10.0,10506173.0,1.075,arrowright,arrowleft,1
23pubcvhh0,Ebbinghaus,0.2687,-0.9,Ebbinghaus_-0.9000_0.26870.png,B,11.0,10508086.0,0.506,arrowleft,arrowleft,0
23pubcvhh0,Ebbinghaus,-0.2687,1.5,Ebbinghaus_1.50000_-0.2687.png,B,12.0,10509410.0,0.474,arrowright,arrowright,0
23pubcvhh0,Ebbinghaus,-0.41515,1.2,Ebbinghaus_1.20000_-0.41515.png,B,13.0,10510803.0,1.601,arrowright,arrowright,0
23pubcvhh0,Ebbinghaus,-0.05,-0.6,Ebbinghaus_-0.6000_-0.0500.png,B,14.0,10513490.0,0.827,arrowright,arrowright,0
23pubcvhh0,Ebbinghaus,0.2687,-0.6,Ebbinghaus_-0.6000_0.26870.png,B,15.0,10515185.0,0.655,arrowleft,arrowleft,0
23pubcvhh0,Ebbinghaus,0.05,0.3,Ebbinghaus_0.30000_0.05000.png,B,16.0,10516897.0,0.761,arrowright,arrowleft,1
23pubcvhh0,Ebbinghaus,0.14856,-0.3,Ebbinghaus_-0.3000_0.14856.png,B,17.0,10518278.0,1.102,arrowleft,arrowleft,0
23pubcvhh0,Ebbinghaus,0.2687,0.9,Ebbinghaus_0.90000_0.26870.png,B,18.0,10520346.0,1.042,arrowright,arrowleft,1
23pubcvhh0,Ebbinghaus,0.2687,-1.5,Ebbinghaus_-1.5000_0.26870.png,B,19.0,10522250.0,0.679,arrowleft,arrowleft,0
23pubcvhh0,Ebbinghaus,0.41515,-1.2,Ebbinghaus_-1.2000_0.41515.png,B,20.0,10523833.0,0.521,arrowleft,arrowleft,0
23pubcvhh0,Ebbinghaus,0.14856,-1.2,Ebbinghaus_-1.2000_0.14856.png,B,21.0,10525371.0,0.702,arrowleft,arrowleft,0
23pubcvhh0,Ebbinghaus,-0.41515,-1.2,Ebbinghaus_-1.2000_-0.41515.png,B,22.0,10526829.0,0.515,arrowright,arrowright,0
23pubcvhh0,Ebbinghaus,0.41515,-1.5,Ebbinghaus_-1.5000_0.41515.png,B,23.0,10528041.0,0.573,arrowleft,arrowleft,0
23pubcvhh0,Ebbinghaus,0.14856,-0.6,Ebbinghaus_-0.6000_0.14856.png,B,24.0,10529522.0,0.52,arrowleft,arrowleft,0
23pubcvhh0,Ebbinghaus,-0.41515,-0.9,Ebbinghaus_-0.9000_-0.41515.png,B,25.0,10530668.0,0.538,arrowright,arrowright,0
23pubcvhh0,Ebbinghaus,0.41515,0.3,Ebbinghaus_0.30000_0.41515.png,B,26.0,10532192.0,0.515,arrowleft,arrowleft,0
23pubcvhh0,Ebbinghaus,-0.14856,0.9,Ebbinghaus_0.90000_-0.14856.png,B,27.0,10533323.0,0.727,arrowleft,arrowright,1
23pubcvhh0,Ebbinghaus,0.14856,0.6,Ebbinghaus_0.60000_0.14856.png,B,28.0,10534879.0,0.682,arrowright,arrowleft,1
23pubcvhh0,Ebbinghaus,0.2687,0.6,Ebbinghaus_0.60000_0.26870.png,B,29.0,10536248.0,1.152,arrowright,arrowleft,1
23pubcvhh0,Ebbinghaus,0.14856,0.9,Ebbinghaus_0.90000_0.14856.png,B,30.0,10538299.0,1.021,arrowright,arrowleft,1
23pubcvhh0,Ebbinghaus,0.05,-0.9,Ebbinghaus_-0.9000_0.05000.png,B,31.0,10540133.0,0.615,arrowleft,arrowleft,0
23pubcvhh0,Ebbinghaus,-0.41515,-0.6,Ebbinghaus_-0.6000_-0.41515.png,B,32.0,10541393.0,0.654,arrowright,arrowright,0
23pubcvhh0,Ebbinghaus,-0.05,-0.9,Ebbinghaus_-0.9000_-0.0500.png,B,33.0,10542917.0,0.46,arrowleft,arrowright,1
23pubcvhh0,Ebbinghaus,0.2687,-1.2,Ebbinghaus_-1.2000_0.26870.png,B,34.0,10544425.0,0.673,arrowleft,arrowleft,0
23pubcvhh0,Ebbinghaus,-0.2687,-1.5,Ebbinghaus_-1.5000_-0.2687.png,B,35.0,10545872.0,0.492,arrowright,arrowright,0
23pubcvhh0,Ebbinghaus,0.05,-1.5,Ebbinghaus_-1.5000_0.05000.png,B,36.0,10547318.0,0.732,arrowleft,arrowleft,0
23pubcvhh0,Ebbinghaus,-0.14856,-0.6,Ebbinghaus_-0.6000_-0.14856.png,B,37.0,10548981.0,0.671,arrowright,arrowright,0
23pubcvhh0,Ebbinghaus,0.05,1.5,Ebbinghaus_1.50000_0.05000.png,B,38.0,10550445.0,0.744,arrowright,arrowleft,1
23pubcvhh0,Ebbinghaus,0.41515,-0.9,Ebbinghaus_-0.9000_0.41515.png,B,39.0,10551903.0,0.619,arrowleft,arrowleft,0
23pubcvhh0,Ebbinghaus,-0.2687,0.9,Ebbinghaus_0.90000_-0.2687.png,B,40.0,10553140.0,0.875,arrowleft,arrowright,1
23pubcvhh0,Ebbinghaus,-0.14856,-0.9,Ebbinghaus_-0.9000_-0.14856.png,B,41.0,10554884.0,0.54,arrowright,arrowright,0
23pubcvhh0,Ebbinghaus,-0.05,0.6,Ebbinghaus_0.60000_-0.0500.png,B,42.0,10556483.0,1.002,arrowleft,arrowright,1
23pubcvhh0,Ebbinghaus,0.2687,0.3,Ebbinghaus_0.30000_0.26870.png,B,43.0,10558316.0,0.995,arrowleft,arrowleft,0
23pubcvhh0,Ebbinghaus,-0.05,-0.3,Ebbinghaus_-0.3000_-0.0500.png,B,44.0,10560073.0,0.605,arrowright,arrowright,0
23pubcvhh0,Ebbinghaus,0.2687,1.5,Ebbinghaus_1.50000_0.26870.png,B,45.0,10561737.0,0.965,arrowright,arrowleft,1
23pubcvhh0,Ebbinghaus,-0.2687,-0.6,Ebbinghaus_-0.6000_-0.2687.png,B,46.0,10563321.0,0.55,arrowright,arrowright,0
23pubcvhh0,Ebbinghaus,0.41515,1.2,Ebbinghaus_1.20000_0.41515.png,B,47.0,10564486.0,0.564,arrowleft,arrowleft,0
23pubcvhh0,Ebbinghaus,-0.2687,-0.9,Ebbinghaus_-0.9000_-0.2687.png,B,48.0,10565867.0,0.433,arrowright,arrowright,0
23pubcvhh0,Ebbinghaus,-0.05,0.3,Ebbinghaus_0.30000_-0.0500.png,B,49.0,10566997.0,1.121,arrowleft,arrowright,1
23pubcvhh0,Ebbinghaus,-0.41515,0.3,Ebbinghaus_0.30000_-0.41515.png,B,50.0,10568811.0,0.531,arrowright,arrowright,0
23pubcvhh0,Ebbinghaus,-0.05,1.5,Ebbinghaus_1.50000_-0.0500.png,B,51.0,10570003.0,0.535,arrowleft,arrowright,1
23pubcvhh0,Ebbinghaus,-0.05,-1.2,Ebbinghaus_-1.2000_-0.0500.png,B,52.0,10571506.0,0.619,arrowright,arrowright,0
23pubcvhh0,Ebbinghaus,-0.2687,1.2,Ebbinghaus_1.20000_-0.2687.png,B,53.0,10573155.0,0.748,arrowleft,arrowright,1
23pubcvhh0,Ebbinghaus,-0.41515,1.5,Ebbinghaus_1.50000_-0.41515.png,B,54.0,10574804.0,0.988,arrowleft,arrowright,1
23pubcvhh0,Ebbinghaus,-0.05,0.9,Ebbinghaus_0.90000_-0.0500.png,B,55.0,10576499.0,0.778,arrowleft,arrowright,1
23pubcvhh0,Ebbinghaus,0.05,-0.6,Ebbinghaus_-0.6000_0.05000.png,B,56.0,10578322.0,0.707,arrowleft,arrowleft,0
23pubcvhh0,Ebbinghaus,0.41515,0.9,Ebbinghaus_0.90000_0.41515.png,B,57.0,10579892.0,0.637,arrowleft,arrowleft,0
23pubcvhh0,Ebbinghaus,0.14856,-0.9,Ebbinghaus_-0.9000_0.14856.png,B,58.0,10581416.0,0.731,arrowleft,arrowleft,0
23pubcvhh0,Ebbinghaus,-0.05,1.2,Ebbinghaus_1.20000_-0.0500.png,B,59.0,10583200.0,1.045,arrowleft,arrowright,1
23pubcvhh0,Ebbinghaus,-0.2687,-1.2,Ebbinghaus_-1.2000_-0.2687.png,B,60.0,10584926.0,1.442,arrowright,arrowright,0
23pubcvhh0,Ebbinghaus,-0.14856,0.6,Ebbinghaus_0.60000_-0.14856.png,B,61.0,10587261.0,0.855,arrowleft,arrowright,1
23pubcvhh0,Ebbinghaus,-0.2687,0.6,Ebbinghaus_0.60000_-0.2687.png,B,62.0,10588783.0,0.687,arrowright,arrowright,0
23pubcvhh0,Ebbinghaus,-0.41515,-1.5,Ebbinghaus_-1.5000_-0.41515.png,B,63.0,10590086.0,0.742,arrowright,arrowright,0
23pubcvhh0,Ebbinghaus,-0.14856,1.5,Ebbinghaus_1.50000_-0.14856.png,B,64.0,10591886.0,0.773,arrowleft,arrowright,1
23pubcvhh0,Ebbinghaus,0.05,1.2,Ebbinghaus_1.20000_0.05000.png,B,65.0,10593423.0,0.868,arrowright,arrowleft,1
23pubcvhh0,Ebbinghaus,0.41515,0.6,Ebbinghaus_0.60000_0.41515.png,B,66.0,10594992.0,0.628,arrowleft,arrowleft,0
23pubcvhh0,Ebbinghaus,-0.14856,1.2,Ebbinghaus_1.20000_-0.14856.png,B,67.0,10596312.0,0.639,arrowleft,arrowright,1
23pubcvhh0,Ebbinghaus,-0.14856,0.3,Ebbinghaus_0.30000_-0.14856.png,B,68.0,10597631.0,0.574,arrowright,arrowright,0
23pubcvhh0,Ebbinghaus,0.05,0.9,Ebbinghaus_0.90000_0.05000.png,B,69.0,10599297.0,0.728,arrowright,arrowleft,1
23pubcvhh0,Ebbinghaus,0.14856,-1.5,Ebbinghaus_-1.5000_0.14856.png,B,70.0,10600679.0,0.599,arrowleft,arrowleft,0
