Participant,Illusion_Type,Illusion_Difference,Illusion_Strength,File,Block,Trial,ISI,RT,Response,Response_Correct,Error
bsvxfugrwp,MullerLyer,-0.30447,3.0,MullerLyer_3.00000_-0.30447.png,A,1.0,539570.0,0.714,arrowdown,arrowdown,0
bsvxfugrwp,MullerLyer,-0.18509,-21.0,MullerLyer_-21.000_-0.18509.png,A,2.0,541044.0,0.535,arrowdown,arrowdown,0
bsvxfugrwp,MullerLyer,-0.08716,-21.0,MullerLyer_-21.000_-0.08716.png,A,3.0,542275.0,0.57,arrowdown,arrowdown,0
bsvxfugrwp,MullerLyer,0.08716,27.0,MullerLyer_27.0000_0.08716.png,A,4.0,543604.0,0.523,arrowdown,arrowup,1
bsvxfugrwp,MullerLyer,0.18509,27.0,MullerLyer_27.0000_0.18509.png,A,5.0,544916.0,1.878,arrowup,arrowup,0
bsvxfugrwp,MullerLyer,0.45,15.0,MullerLyer_15.0000_0.45000.png,A,6.0,547538.0,0.664,arrowup,arrowup,0
bsvxfugrwp,MullerLyer,-0.30447,27.0,MullerLyer_27.0000_-0.30447.png,A,7.0,548924.0,1.999,arrowdown,arrowdown,0
bsvxfugrwp,MullerLyer,0.45,9.0,MullerLyer_9.00000_0.45000.png,A,8.0,551596.0,0.759,arrowup,arrowup,0
bsvxfugrwp,MullerLyer,0.08716,21.0,MullerLyer_21.0000_0.08716.png,A,9.0,553002.0,0.668,arrowdown,arrowup,1
bsvxfugrwp,MullerLyer,0.45,3.0,MullerLyer_3.00000_0.45000.png,A,10.0,554709.0,1.309,arrowup,arrowup,0
bsvxfugrwp,MullerLyer,-0.45,27.0,MullerLyer_27.0000_-0.4500.png,A,11.0,556652.0,0.796,arrowdown,arrowdown,0
bsvxfugrwp,MullerLyer,0.18509,9.0,MullerLyer_9.00000_0.18509.png,A,12.0,558536.0,1.258,arrowup,arrowup,0
bsvxfugrwp,MullerLyer,-0.18509,-3.0,MullerLyer_-3.0000_-0.18509.png,A,13.0,560704.0,0.748,arrowdown,arrowdown,0
bsvxfugrwp,MullerLyer,0.18509,-27.0,MullerLyer_-27.000_0.18509.png,A,14.0,562103.0,1.399,arrowup,arrowup,0
bsvxfugrwp,MullerLyer,0.08716,3.0,MullerLyer_3.00000_0.08716.png,A,15.0,564414.0,4.142,arrowup,arrowup,0
bsvxfugrwp,MullerLyer,-0.18509,-9.0,MullerLyer_-9.0000_-0.18509.png,A,16.0,569431.0,0.71,arrowdown,arrowdown,0
bsvxfugrwp,MullerLyer,-0.08716,27.0,MullerLyer_27.0000_-0.08716.png,A,17.0,570897.0,0.626,arrowup,arrowdown,1
bsvxfugrwp,MullerLyer,-0.45,9.0,MullerLyer_9.00000_-0.4500.png,A,18.0,572445.0,0.754,arrowdown,arrowdown,0
bsvxfugrwp,MullerLyer,0.30447,-21.0,MullerLyer_-21.000_0.30447.png,A,19.0,574136.0,1.726,arrowup,arrowup,0
bsvxfugrwp,MullerLyer,0.08716,15.0,MullerLyer_15.0000_0.08716.png,A,20.0,576747.0,1.98,arrowdown,arrowup,1
bsvxfugrwp,MullerLyer,-0.45,-3.0,MullerLyer_-3.0000_-0.4500.png,A,21.0,579821.0,0.598,arrowdown,arrowdown,0
bsvxfugrwp,MullerLyer,-0.45,15.0,MullerLyer_15.0000_-0.4500.png,A,22.0,581105.0,0.699,arrowdown,arrowdown,0
bsvxfugrwp,MullerLyer,0.45,-21.0,MullerLyer_-21.000_0.45000.png,A,23.0,582694.0,0.796,arrowup,arrowup,0
bsvxfugrwp,MullerLyer,-0.45,21.0,MullerLyer_21.0000_-0.4500.png,A,24.0,584207.0,0.752,arrowdown,arrowdown,0
bsvxfugrwp,MullerLyer,-0.30447,15.0,MullerLyer_15.0000_-0.30447.png,A,25.0,586013.0,1.382,arrowdown,arrowdown,0
bsvxfugrwp,MullerLyer,-0.08716,-3.0,MullerLyer_-3.0000_-0.08716.png,A,26.0,588024.0,0.998,arrowdown,arrowdown,0
bsvxfugrwp,MullerLyer,0.45,-27.0,MullerLyer_-27.000_0.45000.png,A,27.0,589666.0,0.774,arrowup,arrowup,0
bsvxfugrwp,MullerLyer,-0.18509,21.0,MullerLyer_21.0000_-0.18509.png,A,28.0,591344.0,1.162,arrowup,arrowdown,1
bsvxfugrwp,MullerLyer,0.18509,-15.0,MullerLyer_-15.000_0.18509.png,A,29.0,593405.0,0.536,arrowup,arrowup,0
bsvxfugrwp,MullerLyer,-0.08716,3.0,MullerLyer_3.00000_-0.08716.png,A,30.0,594729.0,1.133,arrowdown,arrowdown,0
bsvxfugrwp,MullerLyer,0.30447,-3.0,MullerLyer_-3.0000_0.30447.png,A,31.0,596798.0,0.771,arrowup,arrowup,0
bsvxfugrwp,MullerLyer,-0.45,-27.0,MullerLyer_-27.000_-0.4500.png,A,32.0,598431.0,0.709,arrowdown,arrowdown,0
bsvxfugrwp,MullerLyer,-0.30447,-21.0,MullerLyer_-21.000_-0.30447.png,A,33.0,600080.0,0.57,arrowdown,arrowdown,0
bsvxfugrwp,MullerLyer,-0.30447,-9.0,MullerLyer_-9.0000_-0.30447.png,A,34.0,601328.0,0.853,arrowdown,arrowdown,0
bsvxfugrwp,MullerLyer,0.45,27.0,MullerLyer_27.0000_0.45000.png,A,35.0,602821.0,0.737,arrowup,arrowup,0
bsvxfugrwp,MullerLyer,0.08716,-21.0,MullerLyer_-21.000_0.08716.png,A,36.0,604397.0,0.458,arrowup,arrowup,0
bsvxfugrwp,MullerLyer,0.08716,-27.0,MullerLyer_-27.000_0.08716.png,A,37.0,605567.0,0.475,arrowup,arrowup,0
bsvxfugrwp,MullerLyer,-0.08716,9.0,MullerLyer_9.00000_-0.08716.png,A,38.0,606988.0,2.488,arrowup,arrowdown,1
bsvxfugrwp,MullerLyer,-0.30447,-3.0,MullerLyer_-3.0000_-0.30447.png,A,39.0,610165.0,0.645,arrowdown,arrowdown,0
bsvxfugrwp,MullerLyer,0.08716,-9.0,MullerLyer_-9.0000_0.08716.png,A,40.0,611567.0,0.757,arrowup,arrowup,0
bsvxfugrwp,MullerLyer,-0.45,-21.0,MullerLyer_-21.000_-0.4500.png,A,41.0,613018.0,0.568,arrowdown,arrowdown,0
bsvxfugrwp,MullerLyer,-0.08716,-15.0,MullerLyer_-15.000_-0.08716.png,A,42.0,614652.0,0.569,arrowdown,arrowdown,0
bsvxfugrwp,MullerLyer,-0.30447,21.0,MullerLyer_21.0000_-0.30447.png,A,43.0,616088.0,1.522,arrowdown,arrowdown,0
bsvxfugrwp,MullerLyer,0.08716,-3.0,MullerLyer_-3.0000_0.08716.png,A,44.0,618536.0,0.691,arrowup,arrowup,0
bsvxfugrwp,MullerLyer,0.30447,-15.0,MullerLyer_-15.000_0.30447.png,A,45.0,620282.0,0.497,arrowup,arrowup,0
bsvxfugrwp,MullerLyer,0.45,-9.0,MullerLyer_-9.0000_0.45000.png,A,46.0,621866.0,0.529,arrowup,arrowup,0
bsvxfugrwp,MullerLyer,-0.45,-9.0,MullerLyer_-9.0000_-0.4500.png,A,47.0,623055.0,0.701,arrowdown,arrowdown,0
bsvxfugrwp,MullerLyer,-0.45,3.0,MullerLyer_3.00000_-0.4500.png,A,48.0,624807.0,0.724,arrowdown,arrowdown,0
bsvxfugrwp,MullerLyer,0.18509,3.0,MullerLyer_3.00000_0.18509.png,A,49.0,626601.0,2.081,arrowup,arrowup,0
bsvxfugrwp,MullerLyer,-0.18509,3.0,MullerLyer_3.00000_-0.18509.png,A,50.0,629335.0,0.605,arrowdown,arrowdown,0
bsvxfugrwp,MullerLyer,0.30447,-9.0,MullerLyer_-9.0000_0.30447.png,A,51.0,631015.0,0.724,arrowup,arrowup,0
bsvxfugrwp,MullerLyer,0.18509,-21.0,MullerLyer_-21.000_0.18509.png,A,52.0,632796.0,0.49,arrowup,arrowup,0
bsvxfugrwp,MullerLyer,-0.30447,-15.0,MullerLyer_-15.000_-0.30447.png,A,53.0,633925.0,0.662,arrowdown,arrowdown,0
bsvxfugrwp,MullerLyer,-0.18509,9.0,MullerLyer_9.00000_-0.18509.png,A,54.0,635563.0,2.472,arrowup,arrowdown,1
bsvxfugrwp,MullerLyer,-0.08716,-27.0,MullerLyer_-27.000_-0.08716.png,A,55.0,638690.0,0.754,arrowdown,arrowdown,0
bsvxfugrwp,MullerLyer,-0.18509,15.0,MullerLyer_15.0000_-0.18509.png,A,56.0,640249.0,2.425,arrowup,arrowdown,1
bsvxfugrwp,MullerLyer,0.30447,9.0,MullerLyer_9.00000_0.30447.png,A,57.0,643326.0,0.551,arrowup,arrowup,0
bsvxfugrwp,MullerLyer,0.18509,-3.0,MullerLyer_-3.0000_0.18509.png,A,58.0,644879.0,0.528,arrowup,arrowup,0
bsvxfugrwp,MullerLyer,-0.18509,27.0,MullerLyer_27.0000_-0.18509.png,A,59.0,646523.0,1.13,arrowup,arrowdown,1
bsvxfugrwp,MullerLyer,-0.45,-15.0,MullerLyer_-15.000_-0.4500.png,A,60.0,648636.0,0.666,arrowdown,arrowdown,0
bsvxfugrwp,MullerLyer,0.30447,3.0,MullerLyer_3.00000_0.30447.png,A,61.0,650289.0,0.673,arrowup,arrowup,0
bsvxfugrwp,MullerLyer,0.18509,15.0,MullerLyer_15.0000_0.18509.png,A,62.0,651636.0,1.196,arrowup,arrowup,0
bsvxfugrwp,MullerLyer,0.45,-3.0,MullerLyer_-3.0000_0.45000.png,A,63.0,653553.0,0.728,arrowup,arrowup,0
bsvxfugrwp,MullerLyer,-0.30447,-27.0,MullerLyer_-27.000_-0.30447.png,A,64.0,655268.0,0.75,arrowdown,arrowdown,0
bsvxfugrwp,MullerLyer,-0.08716,21.0,MullerLyer_21.0000_-0.08716.png,A,65.0,656864.0,0.638,arrowup,arrowdown,1
bsvxfugrwp,MullerLyer,-0.30447,9.0,MullerLyer_9.00000_-0.30447.png,A,66.0,658493.0,0.66,arrowdown,arrowdown,0
bsvxfugrwp,MullerLyer,0.45,21.0,MullerLyer_21.0000_0.45000.png,A,67.0,659881.0,0.647,arrowup,arrowup,0
bsvxfugrwp,MullerLyer,0.30447,-27.0,MullerLyer_-27.000_0.30447.png,A,68.0,661530.0,0.519,arrowup,arrowup,0
bsvxfugrwp,MullerLyer,-0.18509,-15.0,MullerLyer_-15.000_-0.18509.png,A,69.0,663013.0,0.739,arrowdown,arrowdown,0
bsvxfugrwp,MullerLyer,-0.18509,-27.0,MullerLyer_-27.000_-0.18509.png,A,70.0,664576.0,0.6,arrowdown,arrowdown,0
bsvxfugrwp,MullerLyer,0.18509,21.0,MullerLyer_21.0000_0.18509.png,A,71.0,666136.0,0.895,arrowdown,arrowup,1
bsvxfugrwp,MullerLyer,0.08716,-15.0,MullerLyer_-15.000_0.08716.png,A,72.0,667711.0,0.699,arrowup,arrowup,0
bsvxfugrwp,MullerLyer,0.30447,15.0,MullerLyer_15.0000_0.30447.png,A,73.0,669180.0,0.32,arrowup,arrowup,0
bsvxfugrwp,MullerLyer,0.45,-15.0,MullerLyer_-15.000_0.45000.png,A,74.0,670335.0,0.451,arrowup,arrowup,0
bsvxfugrwp,MullerLyer,0.08716,9.0,MullerLyer_9.00000_0.08716.png,A,75.0,671514.0,0.875,arrowdown,arrowup,1
bsvxfugrwp,MullerLyer,0.30447,27.0,MullerLyer_27.0000_0.30447.png,A,76.0,673445.0,0.853,arrowdown,arrowup,1
bsvxfugrwp,MullerLyer,-0.08716,15.0,MullerLyer_15.0000_-0.08716.png,A,77.0,675245.0,0.72,arrowup,arrowdown,1
bsvxfugrwp,MullerLyer,0.18509,-9.0,MullerLyer_-9.0000_0.18509.png,A,78.0,676639.0,0.527,arrowup,arrowup,0
bsvxfugrwp,MullerLyer,-0.08716,-9.0,MullerLyer_-9.0000_-0.08716.png,A,79.0,677859.0,0.594,arrowdown,arrowdown,0
bsvxfugrwp,MullerLyer,0.30447,21.0,MullerLyer_21.0000_0.30447.png,A,80.0,679546.0,1.396,arrowup,arrowup,0
bsvxfugrwp,Ebbinghaus,0.5,-0.45,Ebbinghaus_-0.4500_0.50000.png,A,1.0,697935.0,1.044,arrowleft,arrowleft,0
bsvxfugrwp,Ebbinghaus,0.5,1.05,Ebbinghaus_1.05000_0.50000.png,A,2.0,699665.0,1.348,arrowleft,arrowleft,0
bsvxfugrwp,Ebbinghaus,0.3383,-0.15,Ebbinghaus_-0.1500_0.33830.png,A,3.0,701688.0,1.514,arrowleft,arrowleft,0
bsvxfugrwp,Ebbinghaus,-0.3383,0.45,Ebbinghaus_0.45000_-0.3383.png,A,4.0,704031.0,0.751,arrowright,arrowright,0
bsvxfugrwp,Ebbinghaus,-0.20566,-1.35,Ebbinghaus_-1.3500_-0.20566.png,A,5.0,705745.0,0.738,arrowright,arrowright,0
bsvxfugrwp,Ebbinghaus,0.20566,-0.15,Ebbinghaus_-0.1500_0.20566.png,A,6.0,707572.0,1.918,arrowleft,arrowleft,0
bsvxfugrwp,Ebbinghaus,-0.09684,1.05,Ebbinghaus_1.05000_-0.09684.png,A,7.0,710507.0,1.763,arrowleft,arrowright,1
bsvxfugrwp,Ebbinghaus,0.09684,-0.15,Ebbinghaus_-0.1500_0.09684.png,A,8.0,713283.0,1.858,arrowleft,arrowleft,0
bsvxfugrwp,Ebbinghaus,-0.3383,-0.15,Ebbinghaus_-0.1500_-0.3383.png,A,9.0,715786.0,0.759,arrowright,arrowright,0
bsvxfugrwp,Ebbinghaus,-0.5,0.45,Ebbinghaus_0.45000_-0.5000.png,A,10.0,717630.0,0.575,arrowright,arrowright,0
bsvxfugrwp,Ebbinghaus,0.5,1.35,Ebbinghaus_1.35000_0.50000.png,A,11.0,719205.0,1.52,arrowleft,arrowleft,0
bsvxfugrwp,Ebbinghaus,-0.20566,-0.75,Ebbinghaus_-0.7500_-0.20566.png,A,12.0,721364.0,1.033,arrowright,arrowright,0
bsvxfugrwp,Ebbinghaus,0.3383,0.75,Ebbinghaus_0.75000_0.33830.png,A,13.0,723223.0,1.671,arrowleft,arrowleft,0
bsvxfugrwp,Ebbinghaus,0.3383,-0.45,Ebbinghaus_-0.4500_0.33830.png,A,14.0,725781.0,0.998,arrowleft,arrowleft,0
bsvxfugrwp,Ebbinghaus,-0.20566,-0.15,Ebbinghaus_-0.1500_-0.20566.png,A,15.0,727660.0,1.508,arrowright,arrowright,0
bsvxfugrwp,Ebbinghaus,0.5,-1.05,Ebbinghaus_-1.0500_0.50000.png,A,16.0,730258.0,0.861,arrowleft,arrowleft,0
bsvxfugrwp,Ebbinghaus,-0.3383,-0.45,Ebbinghaus_-0.4500_-0.3383.png,A,17.0,732140.0,0.656,arrowright,arrowright,0
bsvxfugrwp,Ebbinghaus,-0.3383,-1.35,Ebbinghaus_-1.3500_-0.3383.png,A,18.0,733791.0,0.636,arrowright,arrowright,0
bsvxfugrwp,Ebbinghaus,0.3383,-1.35,Ebbinghaus_-1.3500_0.33830.png,A,19.0,735234.0,0.799,arrowleft,arrowleft,0
bsvxfugrwp,Ebbinghaus,-0.5,-0.45,Ebbinghaus_-0.4500_-0.5000.png,A,20.0,737018.0,0.669,arrowright,arrowright,0
bsvxfugrwp,Ebbinghaus,-0.3383,-0.75,Ebbinghaus_-0.7500_-0.3383.png,A,21.0,738388.0,1.188,arrowright,arrowright,0
bsvxfugrwp,Ebbinghaus,0.09684,0.75,Ebbinghaus_0.75000_0.09684.png,A,22.0,740411.0,2.257,arrowright,arrowleft,1
bsvxfugrwp,Ebbinghaus,-0.20566,1.35,Ebbinghaus_1.35000_-0.20566.png,A,23.0,743435.0,1.717,arrowleft,arrowright,1
bsvxfugrwp,Ebbinghaus,-0.5,0.15,Ebbinghaus_0.15000_-0.5000.png,A,24.0,746217.0,0.812,arrowright,arrowright,0
bsvxfugrwp,Ebbinghaus,-0.5,-0.15,Ebbinghaus_-0.1500_-0.5000.png,A,25.0,747949.0,0.843,arrowright,arrowright,0
bsvxfugrwp,Ebbinghaus,0.3383,1.35,Ebbinghaus_1.35000_0.33830.png,A,26.0,749526.0,2.185,arrowleft,arrowleft,0
bsvxfugrwp,Ebbinghaus,-0.09684,-0.45,Ebbinghaus_-0.4500_-0.09684.png,A,27.0,752691.0,0.871,arrowright,arrowright,0
bsvxfugrwp,Ebbinghaus,-0.5,-1.05,Ebbinghaus_-1.0500_-0.5000.png,A,28.0,754382.0,0.555,arrowright,arrowright,0
bsvxfugrwp,Ebbinghaus,-0.09684,0.45,Ebbinghaus_0.45000_-0.09684.png,A,29.0,755756.0,4.614,arrowright,arrowright,0
bsvxfugrwp,Ebbinghaus,-0.5,0.75,Ebbinghaus_0.75000_-0.5000.png,A,30.0,761462.0,0.693,arrowright,arrowright,0
bsvxfugrwp,Ebbinghaus,0.20566,-1.05,Ebbinghaus_-1.0500_0.20566.png,A,31.0,762927.0,0.873,arrowleft,arrowleft,0
bsvxfugrwp,Ebbinghaus,0.5,0.75,Ebbinghaus_0.75000_0.50000.png,A,32.0,764597.0,0.944,arrowleft,arrowleft,0
bsvxfugrwp,Ebbinghaus,0.3383,0.15,Ebbinghaus_0.15000_0.33830.png,A,33.0,766556.0,1.594,arrowleft,arrowleft,0
bsvxfugrwp,Ebbinghaus,-0.5,1.05,Ebbinghaus_1.05000_-0.5000.png,A,34.0,769237.0,0.536,arrowright,arrowright,0
bsvxfugrwp,Ebbinghaus,0.5,-0.15,Ebbinghaus_-0.1500_0.50000.png,A,35.0,770416.0,0.778,arrowleft,arrowleft,0
bsvxfugrwp,Ebbinghaus,0.5,-1.35,Ebbinghaus_-1.3500_0.50000.png,A,36.0,771856.0,0.69,arrowleft,arrowleft,0
bsvxfugrwp,Ebbinghaus,0.09684,1.05,Ebbinghaus_1.05000_0.09684.png,A,37.0,773196.0,4.791,arrowleft,arrowleft,0
bsvxfugrwp,Ebbinghaus,-0.20566,0.75,Ebbinghaus_0.75000_-0.20566.png,A,38.0,778777.0,1.283,arrowright,arrowright,0
bsvxfugrwp,Ebbinghaus,0.09684,-0.45,Ebbinghaus_-0.4500_0.09684.png,A,39.0,780862.0,1.27,arrowleft,arrowleft,0
bsvxfugrwp,Ebbinghaus,-0.09684,-0.15,Ebbinghaus_-0.1500_-0.09684.png,A,40.0,782939.0,0.785,arrowright,arrowright,0
bsvxfugrwp,Ebbinghaus,-0.20566,-1.05,Ebbinghaus_-1.0500_-0.20566.png,A,41.0,784554.0,0.583,arrowright,arrowright,0
bsvxfugrwp,Ebbinghaus,0.3383,-0.75,Ebbinghaus_-0.7500_0.33830.png,A,42.0,785912.0,1.067,arrowleft,arrowleft,0
bsvxfugrwp,Ebbinghaus,0.20566,1.05,Ebbinghaus_1.05000_0.20566.png,A,43.0,787848.0,2.421,arrowright,arrowleft,1
bsvxfugrwp,Ebbinghaus,-0.20566,-0.45,Ebbinghaus_-0.4500_-0.20566.png,A,44.0,791279.0,0.633,arrowright,arrowright,0
bsvxfugrwp,Ebbinghaus,0.3383,-1.05,Ebbinghaus_-1.0500_0.33830.png,A,45.0,792741.0,0.803,arrowleft,arrowleft,0
bsvxfugrwp,Ebbinghaus,0.09684,-0.75,Ebbinghaus_-0.7500_0.09684.png,A,46.0,794591.0,2.825,arrowleft,arrowleft,0
bsvxfugrwp,Ebbinghaus,-0.09684,-1.35,Ebbinghaus_-1.3500_-0.09684.png,A,47.0,798469.0,0.651,arrowright,arrowright,0
bsvxfugrwp,Ebbinghaus,-0.5,1.35,Ebbinghaus_1.35000_-0.5000.png,A,48.0,800174.0,0.902,arrowleft,arrowright,1
bsvxfugrwp,Ebbinghaus,-0.20566,0.15,Ebbinghaus_0.15000_-0.20566.png,A,49.0,802168.0,0.686,arrowright,arrowright,0
bsvxfugrwp,Ebbinghaus,0.20566,-0.75,Ebbinghaus_-0.7500_0.20566.png,A,50.0,803759.0,1.17,arrowleft,arrowleft,0
bsvxfugrwp,Ebbinghaus,0.5,0.15,Ebbinghaus_0.15000_0.50000.png,A,51.0,805864.0,0.822,arrowleft,arrowleft,0
bsvxfugrwp,Ebbinghaus,-0.09684,-0.75,Ebbinghaus_-0.7500_-0.09684.png,A,52.0,807720.0,0.703,arrowright,arrowright,0
bsvxfugrwp,Ebbinghaus,0.20566,0.45,Ebbinghaus_0.45000_0.20566.png,A,53.0,809350.0,1.663,arrowright,arrowleft,1
bsvxfugrwp,Ebbinghaus,0.20566,-0.45,Ebbinghaus_-0.4500_0.20566.png,A,54.0,812054.0,0.983,arrowleft,arrowleft,0
bsvxfugrwp,Ebbinghaus,0.20566,-1.35,Ebbinghaus_-1.3500_0.20566.png,A,55.0,814101.0,0.674,arrowleft,arrowleft,0
bsvxfugrwp,Ebbinghaus,0.3383,0.45,Ebbinghaus_0.45000_0.33830.png,A,56.0,815705.0,1.068,arrowleft,arrowleft,0
bsvxfugrwp,Ebbinghaus,0.09684,0.15,Ebbinghaus_0.15000_0.09684.png,A,57.0,817616.0,2.414,arrowleft,arrowleft,0
bsvxfugrwp,Ebbinghaus,-0.3383,1.05,Ebbinghaus_1.05000_-0.3383.png,A,58.0,820867.0,1.262,arrowright,arrowright,0
bsvxfugrwp,Ebbinghaus,0.20566,0.75,Ebbinghaus_0.75000_0.20566.png,A,59.0,822987.0,3.007,arrowleft,arrowleft,0
bsvxfugrwp,Ebbinghaus,-0.3383,0.15,Ebbinghaus_0.15000_-0.3383.png,A,60.0,826973.0,0.841,arrowright,arrowright,0
bsvxfugrwp,Ebbinghaus,-0.09684,1.35,Ebbinghaus_1.35000_-0.09684.png,A,61.0,828713.0,1.036,arrowleft,arrowright,1
bsvxfugrwp,Ebbinghaus,0.5,-0.75,Ebbinghaus_-0.7500_0.50000.png,A,62.0,830699.0,0.85,arrowleft,arrowleft,0
bsvxfugrwp,Ebbinghaus,0.5,0.45,Ebbinghaus_0.45000_0.50000.png,A,63.0,832300.0,0.713,arrowleft,arrowleft,0
bsvxfugrwp,Ebbinghaus,-0.3383,1.35,Ebbinghaus_1.35000_-0.3383.png,A,64.0,833710.0,2.122,arrowleft,arrowright,1
bsvxfugrwp,Ebbinghaus,-0.5,-1.35,Ebbinghaus_-1.3500_-0.5000.png,A,65.0,836800.0,0.699,arrowright,arrowright,0
bsvxfugrwp,Ebbinghaus,0.09684,-1.35,Ebbinghaus_-1.3500_0.09684.png,A,66.0,838557.0,0.612,arrowleft,arrowleft,0
bsvxfugrwp,Ebbinghaus,0.3383,1.05,Ebbinghaus_1.05000_0.33830.png,A,67.0,840146.0,1.139,arrowright,arrowleft,1
bsvxfugrwp,Ebbinghaus,0.20566,1.35,Ebbinghaus_1.35000_0.20566.png,A,68.0,842276.0,0.936,arrowright,arrowleft,1
bsvxfugrwp,Ebbinghaus,0.09684,-1.05,Ebbinghaus_-1.0500_0.09684.png,A,69.0,843846.0,0.825,arrowleft,arrowleft,0
bsvxfugrwp,Ebbinghaus,0.09684,0.45,Ebbinghaus_0.45000_0.09684.png,A,70.0,845538.0,0.655,arrowright,arrowleft,1
bsvxfugrwp,Ebbinghaus,-0.09684,0.15,Ebbinghaus_0.15000_-0.09684.png,A,71.0,846881.0,0.691,arrowright,arrowright,0
bsvxfugrwp,Ebbinghaus,-0.3383,-1.05,Ebbinghaus_-1.0500_-0.3383.png,A,72.0,848252.0,0.654,arrowright,arrowright,0
bsvxfugrwp,Ebbinghaus,-0.20566,1.05,Ebbinghaus_1.05000_-0.20566.png,A,73.0,849660.0,0.659,arrowleft,arrowright,1
bsvxfugrwp,Ebbinghaus,-0.5,-0.75,Ebbinghaus_-0.7500_-0.5000.png,A,74.0,851015.0,0.749,arrowright,arrowright,0
bsvxfugrwp,Ebbinghaus,0.09684,1.35,Ebbinghaus_1.35000_0.09684.png,A,75.0,852804.0,0.6,arrowright,arrowleft,1
bsvxfugrwp,Ebbinghaus,-0.09684,-1.05,Ebbinghaus_-1.0500_-0.09684.png,A,76.0,854216.0,0.275,arrowright,arrowright,0
bsvxfugrwp,Ebbinghaus,-0.20566,0.45,Ebbinghaus_0.45000_-0.20566.png,A,77.0,855350.0,1.058,arrowright,arrowright,0
bsvxfugrwp,Ebbinghaus,-0.3383,0.75,Ebbinghaus_0.75000_-0.3383.png,A,78.0,857402.0,0.904,arrowleft,arrowright,1
bsvxfugrwp,Ebbinghaus,0.20566,0.15,Ebbinghaus_0.15000_0.20566.png,A,79.0,859102.0,0.963,arrowleft,arrowleft,0
bsvxfugrwp,Ebbinghaus,-0.09684,0.75,Ebbinghaus_0.75000_-0.09684.png,A,80.0,860987.0,1.554,arrowleft,arrowright,1
bsvxfugrwp,VerticalHorizontal,0.20298,-13.5,VerticalHorizontal_-13.500_0.20298.png,A,1.0,883111.0,0.953,arrowleft,arrowleft,0
bsvxfugrwp,VerticalHorizontal,-0.3,-13.5,VerticalHorizontal_-13.500_-0.3000.png,A,2.0,885055.0,0.559,arrowright,arrowright,0
bsvxfugrwp,VerticalHorizontal,-0.20298,-31.5,VerticalHorizontal_-31.500_-0.20298.png,A,3.0,886426.0,0.644,arrowright,arrowright,0
bsvxfugrwp,VerticalHorizontal,0.12339,4.5,VerticalHorizontal_4.50000_0.12339.png,A,4.0,887959.0,0.635,arrowleft,arrowleft,0
bsvxfugrwp,VerticalHorizontal,0.0581,22.5,VerticalHorizontal_22.5000_0.05810.png,A,5.0,889607.0,1.16,arrowleft,arrowleft,0
bsvxfugrwp,VerticalHorizontal,-0.20298,-40.5,VerticalHorizontal_-40.500_-0.20298.png,A,6.0,891598.0,0.529,arrowright,arrowright,0
bsvxfugrwp,VerticalHorizontal,0.3,40.5,VerticalHorizontal_40.5000_0.30000.png,A,7.0,893060.0,0.591,arrowleft,arrowleft,0
bsvxfugrwp,VerticalHorizontal,0.3,13.5,VerticalHorizontal_13.5000_0.30000.png,A,8.0,894725.0,0.484,arrowleft,arrowleft,0
bsvxfugrwp,VerticalHorizontal,-0.3,22.5,VerticalHorizontal_22.5000_-0.3000.png,A,9.0,896277.0,0.424,arrowright,arrowright,0
bsvxfugrwp,VerticalHorizontal,0.3,31.5,VerticalHorizontal_31.5000_0.30000.png,A,10.0,897805.0,0.647,arrowleft,arrowleft,0
bsvxfugrwp,VerticalHorizontal,-0.0581,13.5,VerticalHorizontal_13.5000_-0.0581.png,A,11.0,899402.0,0.831,arrowright,arrowright,0
bsvxfugrwp,VerticalHorizontal,-0.3,40.5,VerticalHorizontal_40.5000_-0.3000.png,A,12.0,900969.0,0.422,arrowright,arrowright,0
bsvxfugrwp,VerticalHorizontal,-0.20298,40.5,VerticalHorizontal_40.5000_-0.20298.png,A,13.0,902432.0,1.16,arrowright,arrowright,0
bsvxfugrwp,VerticalHorizontal,0.0581,13.5,VerticalHorizontal_13.5000_0.05810.png,A,14.0,904519.0,1.439,arrowleft,arrowleft,0
bsvxfugrwp,VerticalHorizontal,0.12339,40.5,VerticalHorizontal_40.5000_0.12339.png,A,15.0,906799.0,1.402,arrowleft,arrowleft,0
bsvxfugrwp,VerticalHorizontal,0.12339,-31.5,VerticalHorizontal_-31.500_0.12339.png,A,16.0,909179.0,1.497,arrowleft,arrowleft,0
bsvxfugrwp,VerticalHorizontal,0.12339,-22.5,VerticalHorizontal_-22.500_0.12339.png,A,17.0,911785.0,1.458,arrowleft,arrowleft,0
bsvxfugrwp,VerticalHorizontal,-0.12339,-40.5,VerticalHorizontal_-40.500_-0.12339.png,A,18.0,914092.0,1.491,arrowright,arrowright,0
bsvxfugrwp,VerticalHorizontal,-0.3,-22.5,VerticalHorizontal_-22.500_-0.3000.png,A,19.0,916260.0,0.471,arrowright,arrowright,0
bsvxfugrwp,VerticalHorizontal,0.3,22.5,VerticalHorizontal_22.5000_0.30000.png,A,20.0,917668.0,0.896,arrowleft,arrowleft,0
bsvxfugrwp,VerticalHorizontal,0.0581,4.5,VerticalHorizontal_4.50000_0.05810.png,A,21.0,919628.0,1.396,arrowleft,arrowleft,0
bsvxfugrwp,VerticalHorizontal,0.3,-4.5,VerticalHorizontal_-4.5000_0.30000.png,A,22.0,921654.0,0.724,arrowleft,arrowleft,0
bsvxfugrwp,VerticalHorizontal,-0.0581,4.5,VerticalHorizontal_4.50000_-0.0581.png,A,23.0,923399.0,0.546,arrowright,arrowright,0
bsvxfugrwp,VerticalHorizontal,-0.12339,31.5,VerticalHorizontal_31.5000_-0.12339.png,A,24.0,925021.0,1.976,arrowright,arrowright,0
bsvxfugrwp,VerticalHorizontal,-0.20298,22.5,VerticalHorizontal_22.5000_-0.20298.png,A,25.0,927933.0,0.58,arrowright,arrowright,0
bsvxfugrwp,VerticalHorizontal,0.3,-40.5,VerticalHorizontal_-40.500_0.30000.png,A,26.0,929214.0,0.564,arrowleft,arrowleft,0
bsvxfugrwp,VerticalHorizontal,-0.20298,13.5,VerticalHorizontal_13.5000_-0.20298.png,A,27.0,930832.0,0.892,arrowright,arrowright,0
bsvxfugrwp,VerticalHorizontal,0.0581,40.5,VerticalHorizontal_40.5000_0.05810.png,A,28.0,932770.0,4.743,arrowleft,arrowleft,0
bsvxfugrwp,VerticalHorizontal,-0.12339,4.5,VerticalHorizontal_4.50000_-0.12339.png,A,29.0,938506.0,0.646,arrowright,arrowright,0
bsvxfugrwp,VerticalHorizontal,0.0581,-22.5,VerticalHorizontal_-22.500_0.05810.png,A,30.0,940083.0,1.14,arrowleft,arrowleft,0
bsvxfugrwp,VerticalHorizontal,-0.0581,40.5,VerticalHorizontal_40.5000_-0.0581.png,A,31.0,942258.0,0.775,arrowright,arrowright,0
bsvxfugrwp,VerticalHorizontal,0.3,-13.5,VerticalHorizontal_-13.500_0.30000.png,A,32.0,943908.0,0.507,arrowleft,arrowleft,0
bsvxfugrwp,VerticalHorizontal,0.20298,31.5,VerticalHorizontal_31.5000_0.20298.png,A,33.0,945413.0,0.998,arrowleft,arrowleft,0
bsvxfugrwp,VerticalHorizontal,-0.12339,22.5,VerticalHorizontal_22.5000_-0.12339.png,A,34.0,947069.0,0.651,arrowright,arrowright,0
bsvxfugrwp,VerticalHorizontal,0.0581,-31.5,VerticalHorizontal_-31.500_0.05810.png,A,35.0,948425.0,1.668,arrowleft,arrowleft,0
bsvxfugrwp,VerticalHorizontal,0.12339,-4.5,VerticalHorizontal_-4.5000_0.12339.png,A,36.0,950895.0,0.903,arrowleft,arrowleft,0
bsvxfugrwp,VerticalHorizontal,-0.0581,-22.5,VerticalHorizontal_-22.500_-0.0581.png,A,37.0,952734.0,0.532,arrowright,arrowright,0
bsvxfugrwp,VerticalHorizontal,-0.12339,-22.5,VerticalHorizontal_-22.500_-0.12339.png,A,38.0,954312.0,0.637,arrowright,arrowright,0
bsvxfugrwp,VerticalHorizontal,-0.20298,31.5,VerticalHorizontal_31.5000_-0.20298.png,A,39.0,955613.0,0.736,arrowright,arrowright,0
bsvxfugrwp,VerticalHorizontal,0.20298,13.5,VerticalHorizontal_13.5000_0.20298.png,A,40.0,957424.0,0.581,arrowleft,arrowleft,0
bsvxfugrwp,VerticalHorizontal,-0.12339,-13.5,VerticalHorizontal_-13.500_-0.12339.png,A,41.0,958799.0,0.501,arrowright,arrowright,0
bsvxfugrwp,VerticalHorizontal,0.12339,-13.5,VerticalHorizontal_-13.500_0.12339.png,A,42.0,960289.0,1.262,arrowleft,arrowleft,0
bsvxfugrwp,VerticalHorizontal,-0.12339,13.5,VerticalHorizontal_13.5000_-0.12339.png,A,43.0,962343.0,0.548,arrowright,arrowright,0
bsvxfugrwp,VerticalHorizontal,-0.12339,40.5,VerticalHorizontal_40.5000_-0.12339.png,A,44.0,963870.0,0.815,arrowright,arrowright,0
bsvxfugrwp,VerticalHorizontal,-0.0581,-31.5,VerticalHorizontal_-31.500_-0.0581.png,A,45.0,965397.0,0.396,arrowright,arrowright,0
bsvxfugrwp,VerticalHorizontal,0.3,-31.5,VerticalHorizontal_-31.500_0.30000.png,A,46.0,966696.0,0.723,arrowleft,arrowleft,0
bsvxfugrwp,VerticalHorizontal,0.20298,-22.5,VerticalHorizontal_-22.500_0.20298.png,A,47.0,968533.0,0.764,arrowleft,arrowleft,0
bsvxfugrwp,VerticalHorizontal,-0.20298,-13.5,VerticalHorizontal_-13.500_-0.20298.png,A,48.0,970244.0,0.511,arrowright,arrowright,0
bsvxfugrwp,VerticalHorizontal,-0.3,13.5,VerticalHorizontal_13.5000_-0.3000.png,A,49.0,971480.0,0.571,arrowright,arrowright,0
bsvxfugrwp,VerticalHorizontal,-0.0581,-40.5,VerticalHorizontal_-40.500_-0.0581.png,A,50.0,972891.0,0.661,arrowright,arrowright,0
bsvxfugrwp,VerticalHorizontal,-0.3,31.5,VerticalHorizontal_31.5000_-0.3000.png,A,51.0,974249.0,0.28,arrowright,arrowright,0
bsvxfugrwp,VerticalHorizontal,0.3,4.5,VerticalHorizontal_4.50000_0.30000.png,A,52.0,975509.0,0.539,arrowleft,arrowleft,0
bsvxfugrwp,VerticalHorizontal,-0.20298,4.5,VerticalHorizontal_4.50000_-0.20298.png,A,53.0,977000.0,0.557,arrowright,arrowright,0
bsvxfugrwp,VerticalHorizontal,-0.0581,-4.5,VerticalHorizontal_-4.5000_-0.0581.png,A,54.0,978447.0,1.192,arrowright,arrowright,0
bsvxfugrwp,VerticalHorizontal,0.20298,-40.5,VerticalHorizontal_-40.500_0.20298.png,A,55.0,980609.0,0.577,arrowleft,arrowleft,0
bsvxfugrwp,VerticalHorizontal,-0.3,-4.5,VerticalHorizontal_-4.5000_-0.3000.png,A,56.0,982004.0,0.703,arrowright,arrowright,0
bsvxfugrwp,VerticalHorizontal,-0.20298,-22.5,VerticalHorizontal_-22.500_-0.20298.png,A,57.0,983704.0,0.51,arrowright,arrowright,0
bsvxfugrwp,VerticalHorizontal,-0.3,4.5,VerticalHorizontal_4.50000_-0.3000.png,A,58.0,985129.0,0.674,arrowright,arrowright,0
bsvxfugrwp,VerticalHorizontal,0.12339,31.5,VerticalHorizontal_31.5000_0.12339.png,A,59.0,986750.0,0.891,arrowleft,arrowleft,0
bsvxfugrwp,VerticalHorizontal,0.20298,4.5,VerticalHorizontal_4.50000_0.20298.png,A,60.0,988725.0,0.661,arrowleft,arrowleft,0
bsvxfugrwp,VerticalHorizontal,-0.12339,-4.5,VerticalHorizontal_-4.5000_-0.12339.png,A,61.0,990401.0,0.949,arrowright,arrowright,0
bsvxfugrwp,VerticalHorizontal,0.20298,22.5,VerticalHorizontal_22.5000_0.20298.png,A,62.0,992373.0,0.724,arrowleft,arrowleft,0
bsvxfugrwp,VerticalHorizontal,0.20298,-4.5,VerticalHorizontal_-4.5000_0.20298.png,A,63.0,993753.0,0.601,arrowleft,arrowleft,0
bsvxfugrwp,VerticalHorizontal,-0.3,-31.5,VerticalHorizontal_-31.500_-0.3000.png,A,64.0,995171.0,0.464,arrowright,arrowright,0
bsvxfugrwp,VerticalHorizontal,0.12339,13.5,VerticalHorizontal_13.5000_0.12339.png,A,65.0,996456.0,0.746,arrowleft,arrowleft,0
bsvxfugrwp,VerticalHorizontal,0.3,-22.5,VerticalHorizontal_-22.500_0.30000.png,A,66.0,998148.0,0.837,arrowleft,arrowleft,0
bsvxfugrwp,VerticalHorizontal,0.20298,40.5,VerticalHorizontal_40.5000_0.20298.png,A,67.0,999593.0,1.057,arrowleft,arrowleft,0
bsvxfugrwp,VerticalHorizontal,0.0581,-4.5,VerticalHorizontal_-4.5000_0.05810.png,A,68.0,1001635.0,1.227,arrowleft,arrowleft,0
bsvxfugrwp,VerticalHorizontal,0.12339,-40.5,VerticalHorizontal_-40.500_0.12339.png,A,69.0,1003942.0,0.605,arrowleft,arrowleft,0
bsvxfugrwp,VerticalHorizontal,0.0581,31.5,VerticalHorizontal_31.5000_0.05810.png,A,70.0,1005405.0,1.852,arrowright,arrowleft,1
bsvxfugrwp,VerticalHorizontal,-0.12339,-31.5,VerticalHorizontal_-31.500_-0.12339.png,A,71.0,1008258.0,0.473,arrowright,arrowright,0
bsvxfugrwp,VerticalHorizontal,-0.0581,-13.5,VerticalHorizontal_-13.500_-0.0581.png,A,72.0,1009425.0,0.521,arrowright,arrowright,0
bsvxfugrwp,VerticalHorizontal,-0.3,-40.5,VerticalHorizontal_-40.500_-0.3000.png,A,73.0,1010949.0,0.5,arrowright,arrowright,0
bsvxfugrwp,VerticalHorizontal,-0.0581,22.5,VerticalHorizontal_22.5000_-0.0581.png,A,74.0,1012534.0,0.758,arrowright,arrowright,0
bsvxfugrwp,VerticalHorizontal,0.20298,-31.5,VerticalHorizontal_-31.500_0.20298.png,A,75.0,1013949.0,0.576,arrowleft,arrowleft,0
bsvxfugrwp,VerticalHorizontal,0.12339,22.5,VerticalHorizontal_22.5000_0.12339.png,A,76.0,1015550.0,0.515,arrowright,arrowleft,1
bsvxfugrwp,VerticalHorizontal,-0.0581,31.5,VerticalHorizontal_31.5000_-0.0581.png,A,77.0,1017047.0,7.801,arrowright,arrowright,0
bsvxfugrwp,VerticalHorizontal,0.0581,-13.5,VerticalHorizontal_-13.500_0.05810.png,A,78.0,1025750.0,0.715,arrowleft,arrowleft,0
bsvxfugrwp,VerticalHorizontal,-0.20298,-4.5,VerticalHorizontal_-4.5000_-0.20298.png,A,79.0,1027475.0,0.504,arrowright,arrowright,0
bsvxfugrwp,VerticalHorizontal,0.0581,-40.5,VerticalHorizontal_-40.500_0.05810.png,A,80.0,1028936.0,0.676,arrowleft,arrowleft,0
bsvxfugrwp,MullerLyer,-0.045,18.0,MullerLyer_18.0000_-0.0450.png,B,1.0,1278939.0,2.335,arrowup,arrowdown,1
bsvxfugrwp,MullerLyer,0.37364,6.0,MullerLyer_6.00000_0.37364.png,B,2.0,1282092.0,0.603,arrowup,arrowup,0
bsvxfugrwp,MullerLyer,-0.045,12.0,MullerLyer_12.0000_-0.0450.png,B,3.0,1283648.0,7.048,arrowdown,arrowdown,0
bsvxfugrwp,MullerLyer,0.37364,30.0,MullerLyer_30.0000_0.37364.png,B,4.0,1291571.0,0.95,arrowup,arrowup,0
bsvxfugrwp,MullerLyer,-0.24183,12.0,MullerLyer_12.0000_-0.24183.png,B,5.0,1293309.0,0.984,arrowdown,arrowdown,0
bsvxfugrwp,MullerLyer,0.24183,6.0,MullerLyer_6.00000_0.24183.png,B,6.0,1294979.0,0.687,arrowup,arrowup,0
bsvxfugrwp,MullerLyer,0.24183,-18.0,MullerLyer_-18.000_0.24183.png,B,7.0,1296375.0,0.812,arrowup,arrowup,0
bsvxfugrwp,MullerLyer,0.045,-24.0,MullerLyer_-24.000_0.04500.png,B,8.0,1297926.0,0.541,arrowup,arrowup,0
bsvxfugrwp,MullerLyer,0.045,6.0,MullerLyer_6.00000_0.04500.png,B,9.0,1299396.0,0.637,arrowdown,arrowup,1
bsvxfugrwp,MullerLyer,-0.24183,-24.0,MullerLyer_-24.000_-0.24183.png,B,10.0,1300884.0,0.536,arrowdown,arrowdown,0
bsvxfugrwp,MullerLyer,0.37364,-12.0,MullerLyer_-12.000_0.37364.png,B,11.0,1302239.0,0.571,arrowup,arrowup,0
bsvxfugrwp,MullerLyer,0.1337,12.0,MullerLyer_12.0000_0.13370.png,B,12.0,1303668.0,0.778,arrowdown,arrowup,1
bsvxfugrwp,MullerLyer,0.045,-30.0,MullerLyer_-30.000_0.04500.png,B,13.0,1305373.0,0.726,arrowup,arrowup,0
bsvxfugrwp,MullerLyer,-0.37364,-12.0,MullerLyer_-12.000_-0.37364.png,B,14.0,1306867.0,0.544,arrowdown,arrowdown,0
bsvxfugrwp,MullerLyer,-0.24183,18.0,MullerLyer_18.0000_-0.24183.png,B,15.0,1308077.0,0.744,arrowup,arrowdown,1
bsvxfugrwp,MullerLyer,-0.1337,-6.0,MullerLyer_-6.0000_-0.1337.png,B,16.0,1309806.0,0.588,arrowdown,arrowdown,0
bsvxfugrwp,MullerLyer,-0.045,-12.0,MullerLyer_-12.000_-0.0450.png,B,17.0,1311070.0,0.567,arrowdown,arrowdown,0
bsvxfugrwp,MullerLyer,0.1337,30.0,MullerLyer_30.0000_0.13370.png,B,18.0,1312270.0,0.531,arrowdown,arrowup,1
bsvxfugrwp,MullerLyer,0.1337,6.0,MullerLyer_6.00000_0.13370.png,B,19.0,1313749.0,1.468,arrowup,arrowup,0
bsvxfugrwp,MullerLyer,-0.24183,-12.0,MullerLyer_-12.000_-0.24183.png,B,20.0,1315909.0,0.603,arrowdown,arrowdown,0
bsvxfugrwp,MullerLyer,0.37364,-30.0,MullerLyer_-30.000_0.37364.png,B,21.0,1317571.0,0.531,arrowup,arrowup,0
bsvxfugrwp,MullerLyer,0.37364,18.0,MullerLyer_18.0000_0.37364.png,B,22.0,1319122.0,1.253,arrowup,arrowup,0
bsvxfugrwp,MullerLyer,0.045,30.0,MullerLyer_30.0000_0.04500.png,B,23.0,1321315.0,0.594,arrowdown,arrowup,1
bsvxfugrwp,MullerLyer,0.24183,30.0,MullerLyer_30.0000_0.24183.png,B,24.0,1322581.0,1.308,arrowdown,arrowup,1
bsvxfugrwp,MullerLyer,-0.24183,6.0,MullerLyer_6.00000_-0.24183.png,B,25.0,1324751.0,0.792,arrowdown,arrowdown,0
bsvxfugrwp,MullerLyer,-0.37364,12.0,MullerLyer_12.0000_-0.37364.png,B,26.0,1326590.0,0.506,arrowdown,arrowdown,0
bsvxfugrwp,MullerLyer,-0.1337,30.0,MullerLyer_30.0000_-0.1337.png,B,27.0,1327889.0,1.006,arrowup,arrowdown,1
bsvxfugrwp,MullerLyer,-0.1337,-30.0,MullerLyer_-30.000_-0.1337.png,B,28.0,1329747.0,0.847,arrowdown,arrowdown,0
bsvxfugrwp,MullerLyer,0.24183,24.0,MullerLyer_24.0000_0.24183.png,B,29.0,1331320.0,2.032,arrowup,arrowup,0
bsvxfugrwp,MullerLyer,0.045,12.0,MullerLyer_12.0000_0.04500.png,B,30.0,1334340.0,1.576,arrowdown,arrowup,1
bsvxfugrwp,MullerLyer,0.1337,-12.0,MullerLyer_-12.000_0.13370.png,B,31.0,1336827.0,0.913,arrowup,arrowup,0
bsvxfugrwp,MullerLyer,-0.045,-24.0,MullerLyer_-24.000_-0.0450.png,B,32.0,1338794.0,0.762,arrowdown,arrowdown,0
bsvxfugrwp,MullerLyer,-0.045,-6.0,MullerLyer_-6.0000_-0.0450.png,B,33.0,1340325.0,0.671,arrowdown,arrowdown,0
bsvxfugrwp,MullerLyer,0.37364,-6.0,MullerLyer_-6.0000_0.37364.png,B,34.0,1341701.0,0.484,arrowup,arrowup,0
bsvxfugrwp,MullerLyer,-0.24183,-30.0,MullerLyer_-30.000_-0.24183.png,B,35.0,1342982.0,0.756,arrowdown,arrowdown,0
bsvxfugrwp,MullerLyer,0.24183,12.0,MullerLyer_12.0000_0.24183.png,B,36.0,1344567.0,0.89,arrowup,arrowup,0
bsvxfugrwp,MullerLyer,0.37364,-24.0,MullerLyer_-24.000_0.37364.png,B,37.0,1346138.0,0.614,arrowup,arrowup,0
bsvxfugrwp,MullerLyer,-0.37364,-6.0,MullerLyer_-6.0000_-0.37364.png,B,38.0,1347573.0,0.72,arrowdown,arrowdown,0
bsvxfugrwp,MullerLyer,-0.37364,6.0,MullerLyer_6.00000_-0.37364.png,B,39.0,1349363.0,0.906,arrowdown,arrowdown,0
bsvxfugrwp,MullerLyer,0.045,-6.0,MullerLyer_-6.0000_0.04500.png,B,40.0,1351077.0,0.651,arrowup,arrowup,0
bsvxfugrwp,MullerLyer,0.24183,-30.0,MullerLyer_-30.000_0.24183.png,B,41.0,1352823.0,0.433,arrowup,arrowup,0
bsvxfugrwp,MullerLyer,0.24183,18.0,MullerLyer_18.0000_0.24183.png,B,42.0,1353880.0,3.218,arrowup,arrowup,0
bsvxfugrwp,MullerLyer,-0.045,6.0,MullerLyer_6.00000_-0.0450.png,B,43.0,1357706.0,1.061,arrowup,arrowdown,1
bsvxfugrwp,MullerLyer,-0.24183,24.0,MullerLyer_24.0000_-0.24183.png,B,44.0,1359845.0,1.271,arrowdown,arrowdown,0
bsvxfugrwp,MullerLyer,-0.37364,-30.0,MullerLyer_-30.000_-0.37364.png,B,45.0,1362129.0,1.949,arrowdown,arrowdown,0
bsvxfugrwp,MullerLyer,-0.24183,30.0,MullerLyer_30.0000_-0.24183.png,B,46.0,1364783.0,1.551,arrowdown,arrowdown,0
bsvxfugrwp,MullerLyer,-0.37364,18.0,MullerLyer_18.0000_-0.37364.png,B,47.0,1367213.0,1.183,arrowdown,arrowdown,0
bsvxfugrwp,MullerLyer,0.045,-18.0,MullerLyer_-18.000_0.04500.png,B,48.0,1369135.0,0.521,arrowup,arrowup,0
bsvxfugrwp,MullerLyer,-0.1337,-24.0,MullerLyer_-24.000_-0.1337.png,B,49.0,1370309.0,0.684,arrowdown,arrowdown,0
bsvxfugrwp,MullerLyer,-0.1337,24.0,MullerLyer_24.0000_-0.1337.png,B,50.0,1371768.0,1.436,arrowup,arrowdown,1
bsvxfugrwp,MullerLyer,-0.1337,6.0,MullerLyer_6.00000_-0.1337.png,B,51.0,1374148.0,6.171,arrowdown,arrowdown,0
bsvxfugrwp,MullerLyer,-0.045,30.0,MullerLyer_30.0000_-0.0450.png,B,52.0,1381116.0,0.542,arrowup,arrowdown,1
bsvxfugrwp,MullerLyer,0.1337,-30.0,MullerLyer_-30.000_0.13370.png,B,53.0,1382629.0,0.476,arrowup,arrowup,0
bsvxfugrwp,MullerLyer,-0.045,-30.0,MullerLyer_-30.000_-0.0450.png,B,54.0,1384106.0,0.633,arrowdown,arrowdown,0
bsvxfugrwp,MullerLyer,0.24183,-6.0,MullerLyer_-6.0000_0.24183.png,B,55.0,1385561.0,0.525,arrowup,arrowup,0
bsvxfugrwp,MullerLyer,0.1337,18.0,MullerLyer_18.0000_0.13370.png,B,56.0,1386980.0,0.585,arrowdown,arrowup,1
bsvxfugrwp,MullerLyer,0.045,18.0,MullerLyer_18.0000_0.04500.png,B,57.0,1388497.0,1.31,arrowdown,arrowup,1
bsvxfugrwp,MullerLyer,0.1337,-18.0,MullerLyer_-18.000_0.13370.png,B,58.0,1390623.0,0.978,arrowup,arrowup,0
bsvxfugrwp,MullerLyer,-0.1337,12.0,MullerLyer_12.0000_-0.1337.png,B,59.0,1392451.0,0.575,arrowup,arrowdown,1
bsvxfugrwp,MullerLyer,0.1337,24.0,MullerLyer_24.0000_0.13370.png,B,60.0,1393690.0,0.678,arrowdown,arrowup,1
bsvxfugrwp,MullerLyer,0.24183,-12.0,MullerLyer_-12.000_0.24183.png,B,61.0,1395000.0,0.899,arrowup,arrowup,0
bsvxfugrwp,MullerLyer,0.045,-12.0,MullerLyer_-12.000_0.04500.png,B,62.0,1396969.0,0.504,arrowup,arrowup,0
bsvxfugrwp,MullerLyer,0.37364,-18.0,MullerLyer_-18.000_0.37364.png,B,63.0,1398425.0,0.452,arrowup,arrowup,0
bsvxfugrwp,MullerLyer,0.1337,-24.0,MullerLyer_-24.000_0.13370.png,B,64.0,1399908.0,0.402,arrowup,arrowup,0
bsvxfugrwp,MullerLyer,-0.24183,-6.0,MullerLyer_-6.0000_-0.24183.png,B,65.0,1401200.0,0.615,arrowdown,arrowdown,0
bsvxfugrwp,MullerLyer,-0.1337,18.0,MullerLyer_18.0000_-0.1337.png,B,66.0,1402658.0,1.998,arrowup,arrowdown,1
bsvxfugrwp,MullerLyer,-0.045,24.0,MullerLyer_24.0000_-0.0450.png,B,67.0,1405396.0,1.318,arrowup,arrowdown,1
bsvxfugrwp,MullerLyer,0.045,24.0,MullerLyer_24.0000_0.04500.png,B,68.0,1407824.0,0.706,arrowdown,arrowup,1
bsvxfugrwp,MullerLyer,-0.37364,24.0,MullerLyer_24.0000_-0.37364.png,B,69.0,1409436.0,1.476,arrowdown,arrowdown,0
bsvxfugrwp,MullerLyer,0.37364,12.0,MullerLyer_12.0000_0.37364.png,B,70.0,1411573.0,1.185,arrowup,arrowup,0
bsvxfugrwp,MullerLyer,0.37364,24.0,MullerLyer_24.0000_0.37364.png,B,71.0,1413838.0,0.683,arrowup,arrowup,0
bsvxfugrwp,MullerLyer,0.1337,-6.0,MullerLyer_-6.0000_0.13370.png,B,72.0,1415467.0,0.571,arrowup,arrowup,0
bsvxfugrwp,MullerLyer,-0.1337,-18.0,MullerLyer_-18.000_-0.1337.png,B,73.0,1416920.0,0.717,arrowdown,arrowdown,0
bsvxfugrwp,MullerLyer,-0.1337,-12.0,MullerLyer_-12.000_-0.1337.png,B,74.0,1418716.0,0.947,arrowdown,arrowdown,0
bsvxfugrwp,MullerLyer,-0.045,-18.0,MullerLyer_-18.000_-0.0450.png,B,75.0,1420310.0,0.519,arrowdown,arrowdown,0
bsvxfugrwp,MullerLyer,-0.37364,-24.0,MullerLyer_-24.000_-0.37364.png,B,76.0,1421756.0,0.57,arrowdown,arrowdown,0
bsvxfugrwp,MullerLyer,-0.37364,30.0,MullerLyer_30.0000_-0.37364.png,B,77.0,1423006.0,1.566,arrowdown,arrowdown,0
bsvxfugrwp,MullerLyer,-0.24183,-18.0,MullerLyer_-18.000_-0.24183.png,B,78.0,1425184.0,0.434,arrowdown,arrowdown,0
bsvxfugrwp,MullerLyer,-0.37364,-18.0,MullerLyer_-18.000_-0.37364.png,B,79.0,1426529.0,0.517,arrowdown,arrowdown,0
bsvxfugrwp,MullerLyer,0.24183,-24.0,MullerLyer_-24.000_0.24183.png,B,80.0,1427684.0,0.827,arrowup,arrowup,0
bsvxfugrwp,Ebbinghaus,0.41515,0.6,Ebbinghaus_0.60000_0.41515.png,B,1.0,1482725.0,1.095,arrowleft,arrowleft,0
bsvxfugrwp,Ebbinghaus,0.2687,1.2,Ebbinghaus_1.20000_0.26870.png,B,2.0,1484641.0,0.786,arrowright,arrowleft,1
bsvxfugrwp,Ebbinghaus,-0.14856,0.9,Ebbinghaus_0.90000_-0.14856.png,B,3.0,1486107.0,1.08,arrowleft,arrowright,1
bsvxfugrwp,Ebbinghaus,0.14856,-1.5,Ebbinghaus_-1.5000_0.14856.png,B,4.0,1487823.0,0.969,arrowleft,arrowleft,0
bsvxfugrwp,Ebbinghaus,-0.14856,-0.6,Ebbinghaus_-0.6000_-0.14856.png,B,5.0,1489890.0,0.76,arrowright,arrowright,0
bsvxfugrwp,Ebbinghaus,-0.41515,0.3,Ebbinghaus_0.30000_-0.41515.png,B,6.0,1491457.0,0.871,arrowright,arrowright,0
bsvxfugrwp,Ebbinghaus,0.05,-0.6,Ebbinghaus_-0.6000_0.05000.png,B,7.0,1493308.0,0.888,arrowleft,arrowleft,0
bsvxfugrwp,Ebbinghaus,0.41515,1.5,Ebbinghaus_1.50000_0.41515.png,B,8.0,1495023.0,1.779,arrowright,arrowleft,1
bsvxfugrwp,Ebbinghaus,-0.41515,1.2,Ebbinghaus_1.20000_-0.41515.png,B,9.0,1497726.0,1.299,arrowright,arrowright,0
bsvxfugrwp,Ebbinghaus,-0.2687,-1.5,Ebbinghaus_-1.5000_-0.2687.png,B,10.0,1500059.0,0.688,arrowright,arrowright,0
bsvxfugrwp,Ebbinghaus,0.05,0.9,Ebbinghaus_0.90000_0.05000.png,B,11.0,1501855.0,0.684,arrowright,arrowleft,1
bsvxfugrwp,Ebbinghaus,-0.41515,-0.3,Ebbinghaus_-0.3000_-0.41515.png,B,12.0,1503249.0,0.583,arrowright,arrowright,0
bsvxfugrwp,Ebbinghaus,-0.05,1.2,Ebbinghaus_1.20000_-0.0500.png,B,13.0,1504726.0,0.713,arrowleft,arrowright,1
bsvxfugrwp,Ebbinghaus,0.14856,-0.3,Ebbinghaus_-0.3000_0.14856.png,B,14.0,1506105.0,0.786,arrowleft,arrowleft,0
bsvxfugrwp,Ebbinghaus,-0.41515,-1.5,Ebbinghaus_-1.5000_-0.41515.png,B,15.0,1507861.0,0.522,arrowright,arrowright,0
bsvxfugrwp,Ebbinghaus,0.2687,-0.9,Ebbinghaus_-0.9000_0.26870.png,B,16.0,1509395.0,1.998,arrowleft,arrowleft,0
bsvxfugrwp,Ebbinghaus,-0.14856,-1.5,Ebbinghaus_-1.5000_-0.14856.png,B,17.0,1512069.0,0.898,arrowright,arrowright,0
bsvxfugrwp,Ebbinghaus,0.14856,0.6,Ebbinghaus_0.60000_0.14856.png,B,18.0,1513889.0,1.699,arrowright,arrowleft,1
bsvxfugrwp,Ebbinghaus,0.05,0.3,Ebbinghaus_0.30000_0.05000.png,B,19.0,1516578.0,5.61,arrowleft,arrowleft,0
bsvxfugrwp,Ebbinghaus,-0.41515,0.9,Ebbinghaus_0.90000_-0.41515.png,B,20.0,1522808.0,0.591,arrowright,arrowright,0
bsvxfugrwp,Ebbinghaus,0.05,1.5,Ebbinghaus_1.50000_0.05000.png,B,21.0,1524300.0,0.532,arrowright,arrowleft,1
bsvxfugrwp,Ebbinghaus,-0.05,-1.5,Ebbinghaus_-1.5000_-0.0500.png,B,22.0,1525762.0,0.652,arrowright,arrowright,0
bsvxfugrwp,Ebbinghaus,0.41515,-0.9,Ebbinghaus_-0.9000_0.41515.png,B,23.0,1527032.0,0.798,arrowleft,arrowleft,0
bsvxfugrwp,Ebbinghaus,0.2687,0.6,Ebbinghaus_0.60000_0.26870.png,B,24.0,1528462.0,1.86,arrowright,arrowleft,1
bsvxfugrwp,Ebbinghaus,-0.2687,1.5,Ebbinghaus_1.50000_-0.2687.png,B,25.0,1531276.0,1.059,arrowleft,arrowright,1
bsvxfugrwp,Ebbinghaus,-0.2687,0.3,Ebbinghaus_0.30000_-0.2687.png,B,26.0,1533226.0,1.058,arrowright,arrowright,0
bsvxfugrwp,Ebbinghaus,0.14856,1.5,Ebbinghaus_1.50000_0.14856.png,B,27.0,1535362.0,0.694,arrowright,arrowleft,1
bsvxfugrwp,Ebbinghaus,-0.05,-0.9,Ebbinghaus_-0.9000_-0.0500.png,B,28.0,1536868.0,0.631,arrowright,arrowright,0
bsvxfugrwp,Ebbinghaus,-0.14856,-1.2,Ebbinghaus_-1.2000_-0.14856.png,B,29.0,1538270.0,0.628,arrowright,arrowright,0
bsvxfugrwp,Ebbinghaus,0.14856,-1.2,Ebbinghaus_-1.2000_0.14856.png,B,30.0,1539588.0,1.343,arrowleft,arrowleft,0
bsvxfugrwp,Ebbinghaus,-0.2687,1.2,Ebbinghaus_1.20000_-0.2687.png,B,31.0,1541636.0,1.515,arrowleft,arrowright,1
bsvxfugrwp,Ebbinghaus,0.2687,-0.6,Ebbinghaus_-0.6000_0.26870.png,B,32.0,1543932.0,0.787,arrowleft,arrowleft,0
bsvxfugrwp,Ebbinghaus,0.14856,0.9,Ebbinghaus_0.90000_0.14856.png,B,33.0,1545719.0,0.855,arrowright,arrowleft,1
bsvxfugrwp,Ebbinghaus,-0.05,1.5,Ebbinghaus_1.50000_-0.0500.png,B,34.0,1547491.0,0.911,arrowleft,arrowright,1
bsvxfugrwp,Ebbinghaus,0.14856,0.3,Ebbinghaus_0.30000_0.14856.png,B,35.0,1549129.0,2.289,arrowleft,arrowleft,0
bsvxfugrwp,Ebbinghaus,0.05,-1.5,Ebbinghaus_-1.5000_0.05000.png,B,36.0,1552198.0,0.731,arrowleft,arrowleft,0
bsvxfugrwp,Ebbinghaus,0.14856,1.2,Ebbinghaus_1.20000_0.14856.png,B,37.0,1553972.0,0.775,arrowright,arrowleft,1
bsvxfugrwp,Ebbinghaus,-0.2687,-0.9,Ebbinghaus_-0.9000_-0.2687.png,B,38.0,1555837.0,0.594,arrowright,arrowright,0
bsvxfugrwp,Ebbinghaus,-0.14856,0.3,Ebbinghaus_0.30000_-0.14856.png,B,39.0,1557091.0,1.344,arrowright,arrowright,0
bsvxfugrwp,Ebbinghaus,0.41515,0.9,Ebbinghaus_0.90000_0.41515.png,B,40.0,1559277.0,1.313,arrowright,arrowleft,1
bsvxfugrwp,Ebbinghaus,0.14856,-0.6,Ebbinghaus_-0.6000_0.14856.png,B,41.0,1561434.0,1.091,arrowleft,arrowleft,0
bsvxfugrwp,Ebbinghaus,0.41515,1.2,Ebbinghaus_1.20000_0.41515.png,B,42.0,1563471.0,0.884,arrowright,arrowleft,1
bsvxfugrwp,Ebbinghaus,0.41515,0.3,Ebbinghaus_0.30000_0.41515.png,B,43.0,1565191.0,0.888,arrowleft,arrowleft,0
bsvxfugrwp,Ebbinghaus,-0.41515,1.5,Ebbinghaus_1.50000_-0.41515.png,B,44.0,1567019.0,1.429,arrowleft,arrowright,1
bsvxfugrwp,Ebbinghaus,-0.41515,-1.2,Ebbinghaus_-1.2000_-0.41515.png,B,45.0,1569553.0,0.682,arrowright,arrowright,0
bsvxfugrwp,Ebbinghaus,0.2687,-0.3,Ebbinghaus_-0.3000_0.26870.png,B,46.0,1571211.0,0.907,arrowleft,arrowleft,0
bsvxfugrwp,Ebbinghaus,-0.05,0.6,Ebbinghaus_0.60000_-0.0500.png,B,47.0,1573109.0,1.277,arrowleft,arrowright,1
bsvxfugrwp,Ebbinghaus,-0.41515,-0.6,Ebbinghaus_-0.6000_-0.41515.png,B,48.0,1575365.0,0.787,arrowright,arrowright,0
bsvxfugrwp,Ebbinghaus,0.41515,-1.2,Ebbinghaus_-1.2000_0.41515.png,B,49.0,1576810.0,0.749,arrowleft,arrowleft,0
bsvxfugrwp,Ebbinghaus,0.2687,1.5,Ebbinghaus_1.50000_0.26870.png,B,50.0,1578353.0,0.776,arrowright,arrowleft,1
bsvxfugrwp,Ebbinghaus,0.41515,-0.6,Ebbinghaus_-0.6000_0.41515.png,B,51.0,1580004.0,0.835,arrowleft,arrowleft,0
bsvxfugrwp,Ebbinghaus,0.05,-1.2,Ebbinghaus_-1.2000_0.05000.png,B,52.0,1581720.0,1.367,arrowleft,arrowleft,0
bsvxfugrwp,Ebbinghaus,0.05,-0.3,Ebbinghaus_-0.3000_0.05000.png,B,53.0,1583726.0,1.159,arrowleft,arrowleft,0
bsvxfugrwp,Ebbinghaus,-0.2687,0.6,Ebbinghaus_0.60000_-0.2687.png,B,54.0,1585731.0,1.644,arrowleft,arrowright,1
bsvxfugrwp,Ebbinghaus,-0.14856,0.6,Ebbinghaus_0.60000_-0.14856.png,B,55.0,1588442.0,0.763,arrowleft,arrowright,1
bsvxfugrwp,Ebbinghaus,-0.05,-0.6,Ebbinghaus_-0.6000_-0.0500.png,B,56.0,1590070.0,1.309,arrowright,arrowright,0
bsvxfugrwp,Ebbinghaus,-0.05,0.3,Ebbinghaus_0.30000_-0.0500.png,B,57.0,1592239.0,1.211,arrowleft,arrowright,1
bsvxfugrwp,Ebbinghaus,0.41515,-0.3,Ebbinghaus_-0.3000_0.41515.png,B,58.0,1594313.0,0.871,arrowleft,arrowleft,0
bsvxfugrwp,Ebbinghaus,-0.14856,1.5,Ebbinghaus_1.50000_-0.14856.png,B,59.0,1596215.0,0.888,arrowleft,arrowright,1
bsvxfugrwp,Ebbinghaus,-0.2687,0.9,Ebbinghaus_0.90000_-0.2687.png,B,60.0,1597823.0,0.697,arrowleft,arrowright,1
bsvxfugrwp,Ebbinghaus,-0.41515,0.6,Ebbinghaus_0.60000_-0.41515.png,B,61.0,1599560.0,1.298,arrowright,arrowright,0
bsvxfugrwp,Ebbinghaus,-0.05,-1.2,Ebbinghaus_-1.2000_-0.0500.png,B,62.0,1601652.0,0.523,arrowright,arrowright,0
bsvxfugrwp,Ebbinghaus,-0.14856,-0.9,Ebbinghaus_-0.9000_-0.14856.png,B,63.0,1602918.0,0.653,arrowright,arrowright,0
bsvxfugrwp,Ebbinghaus,-0.14856,-0.3,Ebbinghaus_-0.3000_-0.14856.png,B,64.0,1604672.0,0.807,arrowright,arrowright,0
bsvxfugrwp,Ebbinghaus,0.2687,-1.2,Ebbinghaus_-1.2000_0.26870.png,B,65.0,1606576.0,0.79,arrowleft,arrowleft,0
bsvxfugrwp,Ebbinghaus,-0.05,-0.3,Ebbinghaus_-0.3000_-0.0500.png,B,66.0,1608010.0,0.671,arrowright,arrowright,0
bsvxfugrwp,Ebbinghaus,0.2687,-1.5,Ebbinghaus_-1.5000_0.26870.png,B,67.0,1609323.0,0.778,arrowleft,arrowleft,0
bsvxfugrwp,Ebbinghaus,0.05,1.2,Ebbinghaus_1.20000_0.05000.png,B,68.0,1610876.0,0.693,arrowright,arrowleft,1
bsvxfugrwp,Ebbinghaus,0.05,0.6,Ebbinghaus_0.60000_0.05000.png,B,69.0,1612585.0,0.556,arrowright,arrowleft,1
bsvxfugrwp,Ebbinghaus,0.2687,0.9,Ebbinghaus_0.90000_0.26870.png,B,70.0,1613934.0,0.732,arrowright,arrowleft,1
bsvxfugrwp,Ebbinghaus,0.2687,0.3,Ebbinghaus_0.30000_0.26870.png,B,71.0,1615375.0,1.452,arrowright,arrowleft,1
bsvxfugrwp,Ebbinghaus,-0.2687,-1.2,Ebbinghaus_-1.2000_-0.2687.png,B,72.0,1617617.0,0.528,arrowright,arrowright,0
bsvxfugrwp,Ebbinghaus,0.05,-0.9,Ebbinghaus_-0.9000_0.05000.png,B,73.0,1618831.0,0.785,arrowleft,arrowleft,0
bsvxfugrwp,Ebbinghaus,-0.41515,-0.9,Ebbinghaus_-0.9000_-0.41515.png,B,74.0,1620371.0,1.354,arrowright,arrowright,0
bsvxfugrwp,Ebbinghaus,-0.14856,1.2,Ebbinghaus_1.20000_-0.14856.png,B,75.0,1622749.0,0.814,arrowleft,arrowright,1
bsvxfugrwp,Ebbinghaus,-0.2687,-0.3,Ebbinghaus_-0.3000_-0.2687.png,B,76.0,1624354.0,0.873,arrowright,arrowright,0
bsvxfugrwp,Ebbinghaus,-0.05,0.9,Ebbinghaus_0.90000_-0.0500.png,B,77.0,1626217.0,1.046,arrowleft,arrowright,1
bsvxfugrwp,Ebbinghaus,0.14856,-0.9,Ebbinghaus_-0.9000_0.14856.png,B,78.0,1627889.0,0.988,arrowleft,arrowleft,0
bsvxfugrwp,Ebbinghaus,-0.2687,-0.6,Ebbinghaus_-0.6000_-0.2687.png,B,79.0,1629943.0,0.722,arrowright,arrowright,0
bsvxfugrwp,Ebbinghaus,0.41515,-1.5,Ebbinghaus_-1.5000_0.41515.png,B,80.0,1631574.0,0.656,arrowleft,arrowleft,0
bsvxfugrwp,VerticalHorizontal,-0.08913,-9.0,VerticalHorizontal_-9.0000_-0.08913.png,B,1.0,1654469.0,0.557,arrowright,arrowright,0
bsvxfugrwp,VerticalHorizontal,0.16122,18.0,VerticalHorizontal_18.0000_0.16122.png,B,2.0,1655785.0,1.19,arrowleft,arrowleft,0
bsvxfugrwp,VerticalHorizontal,-0.08913,45.0,VerticalHorizontal_45.0000_-0.08913.png,B,3.0,1658099.0,1.253,arrowright,arrowright,0
bsvxfugrwp,VerticalHorizontal,-0.03,36.0,VerticalHorizontal_36.0000_-0.0300.png,B,4.0,1660040.0,0.808,arrowright,arrowright,0
bsvxfugrwp,VerticalHorizontal,-0.16122,45.0,VerticalHorizontal_45.0000_-0.16122.png,B,5.0,1661807.0,0.889,arrowright,arrowright,0
bsvxfugrwp,VerticalHorizontal,0.24909,-18.0,VerticalHorizontal_-18.000_0.24909.png,B,6.0,1663414.0,0.609,arrowleft,arrowleft,0
bsvxfugrwp,VerticalHorizontal,-0.03,-45.0,VerticalHorizontal_-45.000_-0.0300.png,B,7.0,1664991.0,0.872,arrowright,arrowright,0
bsvxfugrwp,VerticalHorizontal,0.03,45.0,VerticalHorizontal_45.0000_0.03000.png,B,8.0,1666746.0,0.834,arrowright,arrowleft,1
bsvxfugrwp,VerticalHorizontal,-0.24909,36.0,VerticalHorizontal_36.0000_-0.24909.png,B,9.0,1668215.0,0.622,arrowright,arrowright,0
bsvxfugrwp,VerticalHorizontal,0.24909,-45.0,VerticalHorizontal_-45.000_0.24909.png,B,10.0,1669755.0,0.755,arrowleft,arrowleft,0
bsvxfugrwp,VerticalHorizontal,0.08913,9.0,VerticalHorizontal_9.00000_0.08913.png,B,11.0,1671465.0,1.073,arrowright,arrowleft,1
bsvxfugrwp,VerticalHorizontal,-0.08913,-27.0,VerticalHorizontal_-27.000_-0.08913.png,B,12.0,1673364.0,0.581,arrowright,arrowright,0
bsvxfugrwp,VerticalHorizontal,-0.24909,-18.0,VerticalHorizontal_-18.000_-0.24909.png,B,13.0,1675033.0,0.588,arrowright,arrowright,0
bsvxfugrwp,VerticalHorizontal,-0.16122,-18.0,VerticalHorizontal_-18.000_-0.16122.png,B,14.0,1676654.0,0.63,arrowright,arrowright,0
bsvxfugrwp,VerticalHorizontal,-0.03,18.0,VerticalHorizontal_18.0000_-0.0300.png,B,15.0,1678022.0,1.166,arrowright,arrowright,0
bsvxfugrwp,VerticalHorizontal,-0.16122,-9.0,VerticalHorizontal_-9.0000_-0.16122.png,B,16.0,1680080.0,0.744,arrowright,arrowright,0
bsvxfugrwp,VerticalHorizontal,0.16122,-36.0,VerticalHorizontal_-36.000_0.16122.png,B,17.0,1681490.0,1.081,arrowleft,arrowleft,0
bsvxfugrwp,VerticalHorizontal,-0.16122,9.0,VerticalHorizontal_9.00000_-0.16122.png,B,18.0,1683600.0,1.269,arrowright,arrowright,0
bsvxfugrwp,VerticalHorizontal,-0.16122,-36.0,VerticalHorizontal_-36.000_-0.16122.png,B,19.0,1685637.0,0.698,arrowright,arrowright,0
bsvxfugrwp,VerticalHorizontal,0.24909,-36.0,VerticalHorizontal_-36.000_0.24909.png,B,20.0,1687390.0,0.603,arrowleft,arrowleft,0
bsvxfugrwp,VerticalHorizontal,-0.16122,18.0,VerticalHorizontal_18.0000_-0.16122.png,B,21.0,1688658.0,0.928,arrowright,arrowright,0
bsvxfugrwp,VerticalHorizontal,-0.08913,27.0,VerticalHorizontal_27.0000_-0.08913.png,B,22.0,1690638.0,0.948,arrowright,arrowright,0
bsvxfugrwp,VerticalHorizontal,-0.08913,36.0,VerticalHorizontal_36.0000_-0.08913.png,B,23.0,1692322.0,1.399,arrowright,arrowright,0
bsvxfugrwp,VerticalHorizontal,-0.03,45.0,VerticalHorizontal_45.0000_-0.0300.png,B,24.0,1694711.0,0.911,arrowleft,arrowright,1
bsvxfugrwp,VerticalHorizontal,0.08913,-45.0,VerticalHorizontal_-45.000_0.08913.png,B,25.0,1696693.0,1.032,arrowleft,arrowleft,0
bsvxfugrwp,VerticalHorizontal,-0.03,-18.0,VerticalHorizontal_-18.000_-0.0300.png,B,26.0,1698520.0,0.633,arrowright,arrowright,0
bsvxfugrwp,VerticalHorizontal,0.08913,27.0,VerticalHorizontal_27.0000_0.08913.png,B,27.0,1699817.0,1.245,arrowleft,arrowleft,0
bsvxfugrwp,VerticalHorizontal,0.08913,36.0,VerticalHorizontal_36.0000_0.08913.png,B,28.0,1702154.0,0.938,arrowright,arrowleft,1
bsvxfugrwp,VerticalHorizontal,0.16122,-27.0,VerticalHorizontal_-27.000_0.16122.png,B,29.0,1703947.0,0.742,arrowleft,arrowleft,0
bsvxfugrwp,VerticalHorizontal,0.16122,-45.0,VerticalHorizontal_-45.000_0.16122.png,B,30.0,1705608.0,0.819,arrowleft,arrowleft,0
bsvxfugrwp,VerticalHorizontal,-0.16122,27.0,VerticalHorizontal_27.0000_-0.16122.png,B,31.0,1707077.0,1.191,arrowright,arrowright,0
bsvxfugrwp,VerticalHorizontal,0.16122,45.0,VerticalHorizontal_45.0000_0.16122.png,B,32.0,1709162.0,0.816,arrowleft,arrowleft,0
bsvxfugrwp,VerticalHorizontal,-0.16122,-27.0,VerticalHorizontal_-27.000_-0.16122.png,B,33.0,1710696.0,0.737,arrowright,arrowright,0
bsvxfugrwp,VerticalHorizontal,0.16122,9.0,VerticalHorizontal_9.00000_0.16122.png,B,34.0,1712416.0,0.66,arrowleft,arrowleft,0
bsvxfugrwp,VerticalHorizontal,0.03,-36.0,VerticalHorizontal_-36.000_0.03000.png,B,35.0,1713967.0,1.066,arrowleft,arrowleft,0
bsvxfugrwp,VerticalHorizontal,0.08913,45.0,VerticalHorizontal_45.0000_0.08913.png,B,36.0,1716054.0,1.154,arrowright,arrowleft,1
bsvxfugrwp,VerticalHorizontal,-0.03,-36.0,VerticalHorizontal_-36.000_-0.0300.png,B,37.0,1718222.0,0.436,arrowright,arrowright,0
bsvxfugrwp,VerticalHorizontal,0.16122,36.0,VerticalHorizontal_36.0000_0.16122.png,B,38.0,1719422.0,0.642,arrowleft,arrowleft,0
bsvxfugrwp,VerticalHorizontal,0.03,-27.0,VerticalHorizontal_-27.000_0.03000.png,B,39.0,1720686.0,1.491,arrowleft,arrowleft,0
bsvxfugrwp,VerticalHorizontal,-0.16122,-45.0,VerticalHorizontal_-45.000_-0.16122.png,B,40.0,1723162.0,0.538,arrowright,arrowright,0
bsvxfugrwp,VerticalHorizontal,0.24909,36.0,VerticalHorizontal_36.0000_0.24909.png,B,41.0,1724587.0,0.551,arrowleft,arrowleft,0
bsvxfugrwp,VerticalHorizontal,0.24909,9.0,VerticalHorizontal_9.00000_0.24909.png,B,42.0,1725847.0,0.605,arrowleft,arrowleft,0
bsvxfugrwp,VerticalHorizontal,0.24909,45.0,VerticalHorizontal_45.0000_0.24909.png,B,43.0,1727265.0,0.799,arrowleft,arrowleft,0
bsvxfugrwp,VerticalHorizontal,-0.08913,18.0,VerticalHorizontal_18.0000_-0.08913.png,B,44.0,1728824.0,0.67,arrowright,arrowright,0
bsvxfugrwp,VerticalHorizontal,0.03,-9.0,VerticalHorizontal_-9.0000_0.03000.png,B,45.0,1730510.0,0.552,arrowright,arrowleft,1
bsvxfugrwp,VerticalHorizontal,-0.03,27.0,VerticalHorizontal_27.0000_-0.0300.png,B,46.0,1731742.0,1.834,arrowleft,arrowright,1
bsvxfugrwp,VerticalHorizontal,0.08913,18.0,VerticalHorizontal_18.0000_0.08913.png,B,47.0,1734551.0,1.168,arrowleft,arrowleft,0
bsvxfugrwp,VerticalHorizontal,-0.08913,-36.0,VerticalHorizontal_-36.000_-0.08913.png,B,48.0,1736587.0,0.575,arrowright,arrowright,0
bsvxfugrwp,VerticalHorizontal,0.08913,-27.0,VerticalHorizontal_-27.000_0.08913.png,B,49.0,1738023.0,0.527,arrowleft,arrowleft,0
bsvxfugrwp,VerticalHorizontal,0.03,36.0,VerticalHorizontal_36.0000_0.03000.png,B,50.0,1739270.0,0.649,arrowright,arrowleft,1
bsvxfugrwp,VerticalHorizontal,-0.24909,-36.0,VerticalHorizontal_-36.000_-0.24909.png,B,51.0,1740914.0,0.483,arrowright,arrowright,0
bsvxfugrwp,VerticalHorizontal,-0.08913,9.0,VerticalHorizontal_9.00000_-0.08913.png,B,52.0,1742407.0,1.249,arrowright,arrowright,0
bsvxfugrwp,VerticalHorizontal,0.24909,-27.0,VerticalHorizontal_-27.000_0.24909.png,B,53.0,1744628.0,0.889,arrowleft,arrowleft,0
bsvxfugrwp,VerticalHorizontal,-0.08913,-18.0,VerticalHorizontal_-18.000_-0.08913.png,B,54.0,1746347.0,0.504,arrowright,arrowright,0
bsvxfugrwp,VerticalHorizontal,0.03,-45.0,VerticalHorizontal_-45.000_0.03000.png,B,55.0,1747666.0,0.769,arrowleft,arrowleft,0
bsvxfugrwp,VerticalHorizontal,-0.24909,-45.0,VerticalHorizontal_-45.000_-0.24909.png,B,56.0,1749054.0,0.546,arrowright,arrowright,0
bsvxfugrwp,VerticalHorizontal,-0.08913,-45.0,VerticalHorizontal_-45.000_-0.08913.png,B,57.0,1750592.0,0.957,arrowright,arrowright,0
bsvxfugrwp,VerticalHorizontal,0.03,-18.0,VerticalHorizontal_-18.000_0.03000.png,B,58.0,1752517.0,0.612,arrowleft,arrowleft,0
bsvxfugrwp,VerticalHorizontal,0.16122,-9.0,VerticalHorizontal_-9.0000_0.16122.png,B,59.0,1754037.0,1.359,arrowleft,arrowleft,0
bsvxfugrwp,VerticalHorizontal,-0.24909,-9.0,VerticalHorizontal_-9.0000_-0.24909.png,B,60.0,1756312.0,0.503,arrowright,arrowright,0
bsvxfugrwp,VerticalHorizontal,-0.03,-27.0,VerticalHorizontal_-27.000_-0.0300.png,B,61.0,1757535.0,0.407,arrowright,arrowright,0
bsvxfugrwp,VerticalHorizontal,0.03,18.0,VerticalHorizontal_18.0000_0.03000.png,B,62.0,1758654.0,1.128,arrowleft,arrowleft,0
bsvxfugrwp,VerticalHorizontal,0.24909,27.0,VerticalHorizontal_27.0000_0.24909.png,B,63.0,1760703.0,0.828,arrowleft,arrowleft,0
bsvxfugrwp,VerticalHorizontal,-0.03,9.0,VerticalHorizontal_9.00000_-0.0300.png,B,64.0,1762641.0,0.519,arrowright,arrowright,0
bsvxfugrwp,VerticalHorizontal,0.24909,18.0,VerticalHorizontal_18.0000_0.24909.png,B,65.0,1764269.0,0.557,arrowleft,arrowleft,0
bsvxfugrwp,VerticalHorizontal,-0.24909,-27.0,VerticalHorizontal_-27.000_-0.24909.png,B,66.0,1765918.0,0.529,arrowright,arrowright,0
bsvxfugrwp,VerticalHorizontal,0.08913,-18.0,VerticalHorizontal_-18.000_0.08913.png,B,67.0,1767462.0,0.722,arrowleft,arrowleft,0
bsvxfugrwp,VerticalHorizontal,0.03,27.0,VerticalHorizontal_27.0000_0.03000.png,B,68.0,1769230.0,0.782,arrowright,arrowleft,1
bsvxfugrwp,VerticalHorizontal,-0.24909,18.0,VerticalHorizontal_18.0000_-0.24909.png,B,69.0,1770965.0,0.501,arrowright,arrowright,0
bsvxfugrwp,VerticalHorizontal,0.08913,-36.0,VerticalHorizontal_-36.000_0.08913.png,B,70.0,1772519.0,0.567,arrowleft,arrowleft,0
bsvxfugrwp,VerticalHorizontal,-0.16122,36.0,VerticalHorizontal_36.0000_-0.16122.png,B,71.0,1773843.0,0.767,arrowleft,arrowright,1
bsvxfugrwp,VerticalHorizontal,-0.24909,27.0,VerticalHorizontal_27.0000_-0.24909.png,B,72.0,1775414.0,0.636,arrowright,arrowright,0
bsvxfugrwp,VerticalHorizontal,0.08913,-9.0,VerticalHorizontal_-9.0000_0.08913.png,B,73.0,1777035.0,0.716,arrowleft,arrowleft,0
bsvxfugrwp,VerticalHorizontal,-0.24909,9.0,VerticalHorizontal_9.00000_-0.24909.png,B,74.0,1778689.0,0.537,arrowright,arrowright,0
bsvxfugrwp,VerticalHorizontal,0.24909,-9.0,VerticalHorizontal_-9.0000_0.24909.png,B,75.0,1779892.0,0.705,arrowleft,arrowleft,0
bsvxfugrwp,VerticalHorizontal,0.16122,27.0,VerticalHorizontal_27.0000_0.16122.png,B,76.0,1781582.0,0.808,arrowleft,arrowleft,0
bsvxfugrwp,VerticalHorizontal,0.03,9.0,VerticalHorizontal_9.00000_0.03000.png,B,77.0,1783326.0,1.568,arrowright,arrowleft,1
bsvxfugrwp,VerticalHorizontal,0.16122,-18.0,VerticalHorizontal_-18.000_0.16122.png,B,78.0,1785722.0,0.611,arrowleft,arrowleft,0
bsvxfugrwp,VerticalHorizontal,-0.24909,45.0,VerticalHorizontal_45.0000_-0.24909.png,B,79.0,1787221.0,0.995,arrowright,arrowright,0
bsvxfugrwp,VerticalHorizontal,-0.03,-9.0,VerticalHorizontal_-9.0000_-0.0300.png,B,80.0,1788912.0,0.929,arrowleft,arrowright,1
524xnvb3s1,MullerLyer,0.18509,15.0,MullerLyer_15.0000_0.18509.png,A,1.0,315321.0,3.162,arrowup,arrowup,0
524xnvb3s1,MullerLyer,-0.08716,15.0,MullerLyer_15.0000_-0.08716.png,A,2.0,319282.0,2.202,arrowup,arrowdown,1
524xnvb3s1,MullerLyer,0.30447,-21.0,MullerLyer_-21.000_0.30447.png,A,3.0,322192.0,0.723,arrowup,arrowup,0
524xnvb3s1,MullerLyer,-0.08716,-27.0,MullerLyer_-27.000_-0.08716.png,A,4.0,323556.0,0.447,arrowdown,arrowdown,0
524xnvb3s1,MullerLyer,-0.30447,9.0,MullerLyer_9.00000_-0.30447.png,A,5.0,324869.0,0.886,arrowdown,arrowdown,0
524xnvb3s1,MullerLyer,0.18509,21.0,MullerLyer_21.0000_0.18509.png,A,6.0,326420.0,1.951,arrowdown,arrowup,1
524xnvb3s1,MullerLyer,-0.08716,27.0,MullerLyer_27.0000_-0.08716.png,A,7.0,329443.0,2.536,arrowup,arrowdown,1
524xnvb3s1,MullerLyer,0.30447,-9.0,MullerLyer_-9.0000_0.30447.png,A,8.0,332606.0,0.725,arrowup,arrowup,0
524xnvb3s1,MullerLyer,0.30447,21.0,MullerLyer_21.0000_0.30447.png,A,9.0,334092.0,1.799,arrowup,arrowup,0
524xnvb3s1,MullerLyer,0.45,21.0,MullerLyer_21.0000_0.45000.png,A,10.0,336856.0,1.123,arrowup,arrowup,0
524xnvb3s1,MullerLyer,-0.18509,9.0,MullerLyer_9.00000_-0.18509.png,A,11.0,338795.0,1.024,arrowdown,arrowdown,0
524xnvb3s1,MullerLyer,-0.45,-21.0,MullerLyer_-21.000_-0.4500.png,A,12.0,340839.0,0.708,arrowdown,arrowdown,0
524xnvb3s1,MullerLyer,-0.30447,21.0,MullerLyer_21.0000_-0.30447.png,A,13.0,342194.0,2.073,arrowdown,arrowdown,0
524xnvb3s1,MullerLyer,-0.08716,-3.0,MullerLyer_-3.0000_-0.08716.png,A,14.0,345058.0,2.738,arrowdown,arrowdown,0
524xnvb3s1,MullerLyer,0.45,-27.0,MullerLyer_-27.000_0.45000.png,A,15.0,348485.0,0.694,arrowup,arrowup,0
524xnvb3s1,MullerLyer,0.08716,-3.0,MullerLyer_-3.0000_0.08716.png,A,16.0,350174.0,0.781,arrowup,arrowup,0
524xnvb3s1,MullerLyer,-0.18509,21.0,MullerLyer_21.0000_-0.18509.png,A,17.0,351990.0,2.125,arrowdown,arrowdown,0
524xnvb3s1,MullerLyer,0.08716,-27.0,MullerLyer_-27.000_0.08716.png,A,18.0,354845.0,1.527,arrowup,arrowup,0
524xnvb3s1,MullerLyer,-0.45,-27.0,MullerLyer_-27.000_-0.4500.png,A,19.0,357135.0,0.524,arrowdown,arrowdown,0
524xnvb3s1,MullerLyer,-0.18509,-3.0,MullerLyer_-3.0000_-0.18509.png,A,20.0,358352.0,1.324,arrowdown,arrowdown,0
524xnvb3s1,MullerLyer,-0.18509,3.0,MullerLyer_3.00000_-0.18509.png,A,21.0,360406.0,2.653,arrowdown,arrowdown,0
524xnvb3s1,MullerLyer,-0.45,-9.0,MullerLyer_-9.0000_-0.4500.png,A,22.0,364066.0,0.73,arrowdown,arrowdown,0
524xnvb3s1,MullerLyer,0.18509,-27.0,MullerLyer_-27.000_0.18509.png,A,23.0,365816.0,0.531,arrowup,arrowup,0
524xnvb3s1,MullerLyer,0.08716,-9.0,MullerLyer_-9.0000_0.08716.png,A,24.0,367434.0,0.721,arrowup,arrowup,0
524xnvb3s1,MullerLyer,0.30447,-15.0,MullerLyer_-15.000_0.30447.png,A,25.0,369199.0,0.532,arrowup,arrowup,0
524xnvb3s1,MullerLyer,0.18509,-9.0,MullerLyer_-9.0000_0.18509.png,A,26.0,370385.0,0.571,arrowup,arrowup,0
524xnvb3s1,MullerLyer,-0.45,9.0,MullerLyer_9.00000_-0.4500.png,A,27.0,371738.0,0.57,arrowdown,arrowdown,0
524xnvb3s1,MullerLyer,-0.18509,-15.0,MullerLyer_-15.000_-0.18509.png,A,28.0,373160.0,0.676,arrowdown,arrowdown,0
524xnvb3s1,MullerLyer,0.30447,9.0,MullerLyer_9.00000_0.30447.png,A,29.0,374847.0,0.701,arrowup,arrowup,0
524xnvb3s1,MullerLyer,0.08716,-21.0,MullerLyer_-21.000_0.08716.png,A,30.0,376296.0,0.7,arrowup,arrowup,0
524xnvb3s1,MullerLyer,-0.30447,-27.0,MullerLyer_-27.000_-0.30447.png,A,31.0,377880.0,0.692,arrowdown,arrowdown,0
524xnvb3s1,MullerLyer,0.45,15.0,MullerLyer_15.0000_0.45000.png,A,32.0,379520.0,0.684,arrowup,arrowup,0
524xnvb3s1,MullerLyer,0.18509,-15.0,MullerLyer_-15.000_0.18509.png,A,33.0,381131.0,0.601,arrowup,arrowup,0
524xnvb3s1,MullerLyer,0.18509,27.0,MullerLyer_27.0000_0.18509.png,A,34.0,382541.0,0.543,arrowdown,arrowup,1
524xnvb3s1,MullerLyer,0.30447,27.0,MullerLyer_27.0000_0.30447.png,A,35.0,383766.0,0.99,arrowup,arrowup,0
524xnvb3s1,MullerLyer,0.08716,3.0,MullerLyer_3.00000_0.08716.png,A,36.0,385726.0,3.134,arrowup,arrowup,0
524xnvb3s1,MullerLyer,-0.18509,27.0,MullerLyer_27.0000_-0.18509.png,A,37.0,389960.0,1.78,arrowdown,arrowdown,0
524xnvb3s1,MullerLyer,-0.18509,-21.0,MullerLyer_-21.000_-0.18509.png,A,38.0,392525.0,0.711,arrowdown,arrowdown,0
524xnvb3s1,MullerLyer,0.45,9.0,MullerLyer_9.00000_0.45000.png,A,39.0,393869.0,0.511,arrowup,arrowup,0
524xnvb3s1,MullerLyer,0.45,-3.0,MullerLyer_-3.0000_0.45000.png,A,40.0,395207.0,0.509,arrowup,arrowup,0
524xnvb3s1,MullerLyer,-0.45,15.0,MullerLyer_15.0000_-0.4500.png,A,41.0,396550.0,0.67,arrowdown,arrowdown,0
524xnvb3s1,MullerLyer,0.18509,3.0,MullerLyer_3.00000_0.18509.png,A,42.0,397876.0,1.505,arrowup,arrowup,0
524xnvb3s1,MullerLyer,-0.30447,15.0,MullerLyer_15.0000_-0.30447.png,A,43.0,400042.0,1.594,arrowdown,arrowdown,0
524xnvb3s1,MullerLyer,-0.30447,3.0,MullerLyer_3.00000_-0.30447.png,A,44.0,402254.0,0.87,arrowdown,arrowdown,0
524xnvb3s1,MullerLyer,-0.30447,-15.0,MullerLyer_-15.000_-0.30447.png,A,45.0,404067.0,1.177,arrowup,arrowdown,1
524xnvb3s1,MullerLyer,-0.08716,9.0,MullerLyer_9.00000_-0.08716.png,A,46.0,405874.0,1.618,arrowup,arrowdown,1
524xnvb3s1,MullerLyer,0.30447,-27.0,MullerLyer_-27.000_0.30447.png,A,47.0,408107.0,0.561,arrowup,arrowup,0
524xnvb3s1,MullerLyer,0.08716,21.0,MullerLyer_21.0000_0.08716.png,A,48.0,409547.0,3.209,arrowdown,arrowup,1
524xnvb3s1,MullerLyer,0.08716,27.0,MullerLyer_27.0000_0.08716.png,A,49.0,413756.0,0.968,arrowdown,arrowup,1
524xnvb3s1,MullerLyer,0.18509,9.0,MullerLyer_9.00000_0.18509.png,A,50.0,415478.0,1.142,arrowup,arrowup,0
524xnvb3s1,MullerLyer,-0.45,-15.0,MullerLyer_-15.000_-0.4500.png,A,51.0,417428.0,0.545,arrowdown,arrowdown,0
524xnvb3s1,MullerLyer,0.08716,9.0,MullerLyer_9.00000_0.08716.png,A,52.0,418748.0,1.32,arrowup,arrowup,0
524xnvb3s1,MullerLyer,-0.18509,-9.0,MullerLyer_-9.0000_-0.18509.png,A,53.0,421019.0,0.841,arrowdown,arrowdown,0
524xnvb3s1,MullerLyer,-0.30447,27.0,MullerLyer_27.0000_-0.30447.png,A,54.0,422814.0,2.791,arrowup,arrowdown,1
524xnvb3s1,MullerLyer,-0.18509,15.0,MullerLyer_15.0000_-0.18509.png,A,55.0,426247.0,2.845,arrowup,arrowdown,1
524xnvb3s1,MullerLyer,-0.08716,-9.0,MullerLyer_-9.0000_-0.08716.png,A,56.0,429783.0,0.597,arrowdown,arrowdown,0
524xnvb3s1,MullerLyer,0.30447,-3.0,MullerLyer_-3.0000_0.30447.png,A,57.0,431360.0,0.612,arrowup,arrowup,0
524xnvb3s1,MullerLyer,-0.08716,-15.0,MullerLyer_-15.000_-0.08716.png,A,58.0,433072.0,0.613,arrowdown,arrowdown,0
524xnvb3s1,MullerLyer,0.45,-15.0,MullerLyer_-15.000_0.45000.png,A,59.0,434459.0,0.449,arrowup,arrowup,0
524xnvb3s1,MullerLyer,-0.45,3.0,MullerLyer_3.00000_-0.4500.png,A,60.0,435915.0,0.689,arrowdown,arrowdown,0
524xnvb3s1,MullerLyer,-0.30447,-21.0,MullerLyer_-21.000_-0.30447.png,A,61.0,437690.0,0.666,arrowdown,arrowdown,0
524xnvb3s1,MullerLyer,0.08716,-15.0,MullerLyer_-15.000_0.08716.png,A,62.0,439061.0,0.519,arrowup,arrowup,0
524xnvb3s1,MullerLyer,-0.30447,-3.0,MullerLyer_-3.0000_-0.30447.png,A,63.0,440497.0,0.555,arrowdown,arrowdown,0
524xnvb3s1,MullerLyer,-0.18509,-27.0,MullerLyer_-27.000_-0.18509.png,A,64.0,441841.0,0.643,arrowdown,arrowdown,0
524xnvb3s1,MullerLyer,0.45,-21.0,MullerLyer_-21.000_0.45000.png,A,65.0,443133.0,0.543,arrowup,arrowup,0
524xnvb3s1,MullerLyer,-0.45,27.0,MullerLyer_27.0000_-0.4500.png,A,66.0,444773.0,1.919,arrowdown,arrowdown,0
524xnvb3s1,MullerLyer,0.30447,3.0,MullerLyer_3.00000_0.30447.png,A,67.0,447585.0,0.9,arrowup,arrowup,0
524xnvb3s1,MullerLyer,0.08716,15.0,MullerLyer_15.0000_0.08716.png,A,68.0,449496.0,1.572,arrowdown,arrowup,1
524xnvb3s1,MullerLyer,-0.30447,-9.0,MullerLyer_-9.0000_-0.30447.png,A,69.0,452023.0,0.613,arrowdown,arrowdown,0
524xnvb3s1,MullerLyer,0.18509,-21.0,MullerLyer_-21.000_0.18509.png,A,70.0,453298.0,0.611,arrowup,arrowup,0
524xnvb3s1,MullerLyer,0.18509,-3.0,MullerLyer_-3.0000_0.18509.png,A,71.0,454959.0,0.661,arrowup,arrowup,0
524xnvb3s1,MullerLyer,0.30447,15.0,MullerLyer_15.0000_0.30447.png,A,72.0,456604.0,1.353,arrowup,arrowup,0
524xnvb3s1,MullerLyer,-0.08716,3.0,MullerLyer_3.00000_-0.08716.png,A,73.0,458629.0,2.024,arrowdown,arrowdown,0
524xnvb3s1,MullerLyer,-0.08716,21.0,MullerLyer_21.0000_-0.08716.png,A,74.0,461698.0,1.531,arrowup,arrowdown,1
524xnvb3s1,MullerLyer,0.45,3.0,MullerLyer_3.00000_0.45000.png,A,75.0,464135.0,0.646,arrowup,arrowup,0
524xnvb3s1,MullerLyer,0.45,-9.0,MullerLyer_-9.0000_0.45000.png,A,76.0,465499.0,0.53,arrowup,arrowup,0
524xnvb3s1,MullerLyer,-0.45,-3.0,MullerLyer_-3.0000_-0.4500.png,A,77.0,466716.0,0.56,arrowdown,arrowdown,0
524xnvb3s1,MullerLyer,-0.08716,-21.0,MullerLyer_-21.000_-0.08716.png,A,78.0,468247.0,0.565,arrowdown,arrowdown,0
524xnvb3s1,MullerLyer,-0.45,21.0,MullerLyer_21.0000_-0.4500.png,A,79.0,469563.0,1.77,arrowdown,arrowdown,0
524xnvb3s1,MullerLyer,0.45,27.0,MullerLyer_27.0000_0.45000.png,A,80.0,472264.0,1.196,arrowup,arrowup,0
524xnvb3s1,Ebbinghaus,-0.20566,0.45,Ebbinghaus_0.45000_-0.20566.png,A,1.0,484768.0,1.853,arrowright,arrowright,0
524xnvb3s1,Ebbinghaus,-0.5,1.35,Ebbinghaus_1.35000_-0.5000.png,A,2.0,487619.0,3.53,arrowright,arrowright,0
524xnvb3s1,Ebbinghaus,0.09684,0.45,Ebbinghaus_0.45000_0.09684.png,A,3.0,491846.0,1.663,arrowleft,arrowleft,0
524xnvb3s1,Ebbinghaus,-0.20566,-0.15,Ebbinghaus_-0.1500_-0.20566.png,A,4.0,494521.0,3.212,arrowright,arrowright,0
524xnvb3s1,Ebbinghaus,0.5,1.35,Ebbinghaus_1.35000_0.50000.png,A,5.0,498490.0,2.091,arrowleft,arrowleft,0
524xnvb3s1,Ebbinghaus,0.3383,0.15,Ebbinghaus_0.15000_0.33830.png,A,6.0,501470.0,2.127,arrowleft,arrowleft,0
524xnvb3s1,Ebbinghaus,0.3383,0.75,Ebbinghaus_0.75000_0.33830.png,A,7.0,504294.0,1.174,arrowright,arrowleft,1
524xnvb3s1,Ebbinghaus,0.5,-0.75,Ebbinghaus_-0.7500_0.50000.png,A,8.0,506534.0,1.031,arrowleft,arrowleft,0
524xnvb3s1,Ebbinghaus,-0.3383,1.35,Ebbinghaus_1.35000_-0.3383.png,A,9.0,508256.0,4.021,arrowleft,arrowright,1
524xnvb3s1,Ebbinghaus,0.09684,-0.15,Ebbinghaus_-0.1500_0.09684.png,A,10.0,513218.0,1.988,arrowright,arrowleft,1
524xnvb3s1,Ebbinghaus,-0.3383,-0.15,Ebbinghaus_-0.1500_-0.3383.png,A,11.0,515872.0,1.181,arrowright,arrowright,0
524xnvb3s1,Ebbinghaus,-0.09684,-0.45,Ebbinghaus_-0.4500_-0.09684.png,A,12.0,518003.0,4.185,arrowright,arrowright,0
524xnvb3s1,Ebbinghaus,-0.09684,-0.75,Ebbinghaus_-0.7500_-0.09684.png,A,13.0,523013.0,1.087,arrowright,arrowright,0
524xnvb3s1,Ebbinghaus,0.5,-1.35,Ebbinghaus_-1.3500_0.50000.png,A,14.0,525111.0,0.767,arrowleft,arrowleft,0
524xnvb3s1,Ebbinghaus,0.09684,-0.45,Ebbinghaus_-0.4500_0.09684.png,A,15.0,526751.0,1.181,arrowleft,arrowleft,0
524xnvb3s1,Ebbinghaus,0.20566,0.45,Ebbinghaus_0.45000_0.20566.png,A,16.0,528805.0,3.24,arrowleft,arrowleft,0
524xnvb3s1,Ebbinghaus,-0.09684,1.05,Ebbinghaus_1.05000_-0.09684.png,A,17.0,532876.0,1.785,arrowleft,arrowright,1
524xnvb3s1,Ebbinghaus,-0.3383,0.15,Ebbinghaus_0.15000_-0.3383.png,A,18.0,535672.0,0.756,arrowright,arrowright,0
524xnvb3s1,Ebbinghaus,-0.3383,0.75,Ebbinghaus_0.75000_-0.3383.png,A,19.0,537262.0,4.551,arrowright,arrowright,0
524xnvb3s1,Ebbinghaus,0.3383,1.35,Ebbinghaus_1.35000_0.33830.png,A,20.0,542836.0,3.409,arrowright,arrowleft,1
524xnvb3s1,Ebbinghaus,0.5,0.75,Ebbinghaus_0.75000_0.50000.png,A,21.0,547323.0,1.642,arrowleft,arrowleft,0
524xnvb3s1,Ebbinghaus,0.5,-0.45,Ebbinghaus_-0.4500_0.50000.png,A,22.0,550060.0,1.057,arrowleft,arrowleft,0
524xnvb3s1,Ebbinghaus,-0.5,-0.75,Ebbinghaus_-0.7500_-0.5000.png,A,23.0,551777.0,0.628,arrowright,arrowright,0
524xnvb3s1,Ebbinghaus,-0.3383,0.45,Ebbinghaus_0.45000_-0.3383.png,A,24.0,553295.0,2.071,arrowright,arrowright,0
524xnvb3s1,Ebbinghaus,0.3383,0.45,Ebbinghaus_0.45000_0.33830.png,A,25.0,556355.0,3.585,arrowleft,arrowleft,0
524xnvb3s1,Ebbinghaus,-0.09684,-0.15,Ebbinghaus_-0.1500_-0.09684.png,A,26.0,560609.0,1.588,arrowleft,arrowright,1
524xnvb3s1,Ebbinghaus,0.09684,0.15,Ebbinghaus_0.15000_0.09684.png,A,27.0,562967.0,1.326,arrowleft,arrowleft,0
524xnvb3s1,Ebbinghaus,-0.20566,0.75,Ebbinghaus_0.75000_-0.20566.png,A,28.0,565076.0,3.28,arrowright,arrowright,0
524xnvb3s1,Ebbinghaus,0.20566,0.15,Ebbinghaus_0.15000_0.20566.png,A,29.0,569093.0,2.991,arrowright,arrowleft,1
524xnvb3s1,Ebbinghaus,-0.3383,-1.05,Ebbinghaus_-1.0500_-0.3383.png,A,30.0,572741.0,0.855,arrowright,arrowright,0
524xnvb3s1,Ebbinghaus,0.5,-1.05,Ebbinghaus_-1.0500_0.50000.png,A,31.0,574359.0,0.789,arrowleft,arrowleft,0
524xnvb3s1,Ebbinghaus,-0.5,0.15,Ebbinghaus_0.15000_-0.5000.png,A,32.0,576243.0,0.554,arrowright,arrowright,0
524xnvb3s1,Ebbinghaus,0.5,0.15,Ebbinghaus_0.15000_0.50000.png,A,33.0,577869.0,2.455,arrowleft,arrowleft,0
524xnvb3s1,Ebbinghaus,-0.20566,-1.05,Ebbinghaus_-1.0500_-0.20566.png,A,34.0,580931.0,0.721,arrowright,arrowright,0
524xnvb3s1,Ebbinghaus,-0.3383,-1.35,Ebbinghaus_-1.3500_-0.3383.png,A,35.0,582676.0,0.952,arrowright,arrowright,0
524xnvb3s1,Ebbinghaus,-0.09684,-1.05,Ebbinghaus_-1.0500_-0.09684.png,A,36.0,584300.0,2.673,arrowright,arrowright,0
524xnvb3s1,Ebbinghaus,0.09684,1.35,Ebbinghaus_1.35000_0.09684.png,A,37.0,587887.0,0.917,arrowright,arrowleft,1
524xnvb3s1,Ebbinghaus,-0.3383,1.05,Ebbinghaus_1.05000_-0.3383.png,A,38.0,589776.0,1.509,arrowleft,arrowright,1
524xnvb3s1,Ebbinghaus,0.3383,1.05,Ebbinghaus_1.05000_0.33830.png,A,39.0,592211.0,2.418,arrowleft,arrowleft,0
524xnvb3s1,Ebbinghaus,-0.20566,-1.35,Ebbinghaus_-1.3500_-0.20566.png,A,40.0,595609.0,1.036,arrowright,arrowright,0
524xnvb3s1,Ebbinghaus,0.20566,0.75,Ebbinghaus_0.75000_0.20566.png,A,41.0,597287.0,3.366,arrowright,arrowleft,1
524xnvb3s1,Ebbinghaus,-0.09684,0.15,Ebbinghaus_0.15000_-0.09684.png,A,42.0,601475.0,1.186,arrowright,arrowright,0
524xnvb3s1,Ebbinghaus,-0.3383,-0.75,Ebbinghaus_-0.7500_-0.3383.png,A,43.0,603761.0,0.835,arrowright,arrowright,0
524xnvb3s1,Ebbinghaus,-0.09684,0.45,Ebbinghaus_0.45000_-0.09684.png,A,44.0,605276.0,1.457,arrowleft,arrowright,1
524xnvb3s1,Ebbinghaus,0.20566,-0.45,Ebbinghaus_-0.4500_0.20566.png,A,45.0,607446.0,1.198,arrowleft,arrowleft,0
524xnvb3s1,Ebbinghaus,0.09684,-1.05,Ebbinghaus_-1.0500_0.09684.png,A,46.0,609321.0,0.917,arrowleft,arrowleft,0
524xnvb3s1,Ebbinghaus,0.09684,0.75,Ebbinghaus_0.75000_0.09684.png,A,47.0,610847.0,3.581,arrowright,arrowleft,1
524xnvb3s1,Ebbinghaus,0.20566,-0.15,Ebbinghaus_-0.1500_0.20566.png,A,48.0,615303.0,2.15,arrowleft,arrowleft,0
524xnvb3s1,Ebbinghaus,0.3383,-1.35,Ebbinghaus_-1.3500_0.33830.png,A,49.0,618511.0,0.63,arrowleft,arrowleft,0
524xnvb3s1,Ebbinghaus,-0.20566,1.05,Ebbinghaus_1.05000_-0.20566.png,A,50.0,620073.0,2.716,arrowleft,arrowright,1
524xnvb3s1,Ebbinghaus,-0.20566,1.35,Ebbinghaus_1.35000_-0.20566.png,A,51.0,623614.0,2.783,arrowright,arrowright,0
524xnvb3s1,Ebbinghaus,0.20566,1.05,Ebbinghaus_1.05000_0.20566.png,A,52.0,627401.0,1.013,arrowright,arrowleft,1
524xnvb3s1,Ebbinghaus,0.20566,-1.05,Ebbinghaus_-1.0500_0.20566.png,A,53.0,629415.0,1.294,arrowleft,arrowleft,0
524xnvb3s1,Ebbinghaus,0.5,1.05,Ebbinghaus_1.05000_0.50000.png,A,54.0,631563.0,5.186,arrowleft,arrowleft,0
524xnvb3s1,Ebbinghaus,-0.5,-1.35,Ebbinghaus_-1.3500_-0.5000.png,A,55.0,637755.0,0.626,arrowright,arrowright,0
524xnvb3s1,Ebbinghaus,0.20566,-1.35,Ebbinghaus_-1.3500_0.20566.png,A,56.0,639106.0,0.924,arrowleft,arrowleft,0
524xnvb3s1,Ebbinghaus,0.3383,-1.05,Ebbinghaus_-1.0500_0.33830.png,A,57.0,640892.0,1.137,arrowleft,arrowleft,0
524xnvb3s1,Ebbinghaus,0.09684,1.05,Ebbinghaus_1.05000_0.09684.png,A,58.0,643010.0,1.051,arrowright,arrowleft,1
524xnvb3s1,Ebbinghaus,-0.09684,-1.35,Ebbinghaus_-1.3500_-0.09684.png,A,59.0,645049.0,1.468,arrowright,arrowright,0
524xnvb3s1,Ebbinghaus,-0.5,0.45,Ebbinghaus_0.45000_-0.5000.png,A,60.0,647416.0,1.477,arrowright,arrowright,0
524xnvb3s1,Ebbinghaus,0.5,-0.15,Ebbinghaus_-0.1500_0.50000.png,A,61.0,649569.0,0.86,arrowleft,arrowleft,0
524xnvb3s1,Ebbinghaus,-0.5,0.75,Ebbinghaus_0.75000_-0.5000.png,A,62.0,651133.0,2.561,arrowright,arrowright,0
524xnvb3s1,Ebbinghaus,-0.3383,-0.45,Ebbinghaus_-0.4500_-0.3383.png,A,63.0,654496.0,1.149,arrowright,arrowright,0
524xnvb3s1,Ebbinghaus,0.20566,-0.75,Ebbinghaus_-0.7500_0.20566.png,A,64.0,656406.0,0.871,arrowleft,arrowleft,0
524xnvb3s1,Ebbinghaus,-0.20566,-0.75,Ebbinghaus_-0.7500_-0.20566.png,A,65.0,658265.0,0.74,arrowright,arrowright,0
524xnvb3s1,Ebbinghaus,-0.5,-0.45,Ebbinghaus_-0.4500_-0.5000.png,A,66.0,660044.0,0.673,arrowright,arrowright,0
524xnvb3s1,Ebbinghaus,0.09684,-0.75,Ebbinghaus_-0.7500_0.09684.png,A,67.0,661786.0,0.947,arrowleft,arrowleft,0
524xnvb3s1,Ebbinghaus,-0.20566,-0.45,Ebbinghaus_-0.4500_-0.20566.png,A,68.0,663629.0,1.097,arrowright,arrowright,0
524xnvb3s1,Ebbinghaus,-0.09684,0.75,Ebbinghaus_0.75000_-0.09684.png,A,69.0,665423.0,0.894,arrowleft,arrowright,1
524xnvb3s1,Ebbinghaus,-0.5,1.05,Ebbinghaus_1.05000_-0.5000.png,A,70.0,667335.0,4.206,arrowleft,arrowright,1
524xnvb3s1,Ebbinghaus,0.5,0.45,Ebbinghaus_0.45000_0.50000.png,A,71.0,672619.0,1.683,arrowleft,arrowleft,0
524xnvb3s1,Ebbinghaus,0.3383,-0.45,Ebbinghaus_-0.4500_0.33830.png,A,72.0,675338.0,0.851,arrowleft,arrowleft,0
524xnvb3s1,Ebbinghaus,-0.20566,0.15,Ebbinghaus_0.15000_-0.20566.png,A,73.0,677112.0,3.333,arrowright,arrowright,0
524xnvb3s1,Ebbinghaus,0.20566,1.35,Ebbinghaus_1.35000_0.20566.png,A,74.0,681318.0,4.464,arrowright,arrowleft,1
524xnvb3s1,Ebbinghaus,0.3383,-0.75,Ebbinghaus_-0.7500_0.33830.png,A,75.0,686685.0,0.665,arrowleft,arrowleft,0
524xnvb3s1,Ebbinghaus,-0.5,-0.15,Ebbinghaus_-0.1500_-0.5000.png,A,76.0,688027.0,0.555,arrowright,arrowright,0
524xnvb3s1,Ebbinghaus,0.3383,-0.15,Ebbinghaus_-0.1500_0.33830.png,A,77.0,689629.0,1.128,arrowleft,arrowleft,0
524xnvb3s1,Ebbinghaus,0.09684,-1.35,Ebbinghaus_-1.3500_0.09684.png,A,78.0,691668.0,0.857,arrowleft,arrowleft,0
524xnvb3s1,Ebbinghaus,-0.5,-1.05,Ebbinghaus_-1.0500_-0.5000.png,A,79.0,693228.0,0.69,arrowright,arrowright,0
524xnvb3s1,Ebbinghaus,-0.09684,1.35,Ebbinghaus_1.35000_-0.09684.png,A,80.0,694861.0,0.649,arrowleft,arrowright,1
524xnvb3s1,VerticalHorizontal,0.12339,-22.5,VerticalHorizontal_-22.500_0.12339.png,A,1.0,780606.0,1.135,arrowleft,arrowleft,0
524xnvb3s1,VerticalHorizontal,-0.3,-13.5,VerticalHorizontal_-13.500_-0.3000.png,A,2.0,782361.0,0.469,arrowright,arrowright,0
524xnvb3s1,VerticalHorizontal,-0.12339,-22.5,VerticalHorizontal_-22.500_-0.12339.png,A,3.0,783637.0,0.505,arrowright,arrowright,0
524xnvb3s1,VerticalHorizontal,0.3,-40.5,VerticalHorizontal_-40.500_0.30000.png,A,4.0,785023.0,0.383,arrowleft,arrowleft,0
524xnvb3s1,VerticalHorizontal,-0.20298,22.5,VerticalHorizontal_22.5000_-0.20298.png,A,5.0,786248.0,0.485,arrowright,arrowright,0
524xnvb3s1,VerticalHorizontal,-0.0581,-22.5,VerticalHorizontal_-22.500_-0.0581.png,A,6.0,787598.0,0.632,arrowright,arrowright,0
524xnvb3s1,VerticalHorizontal,0.0581,4.5,VerticalHorizontal_4.50000_0.05810.png,A,7.0,789250.0,1.62,arrowleft,arrowleft,0
524xnvb3s1,VerticalHorizontal,-0.12339,-31.5,VerticalHorizontal_-31.500_-0.12339.png,A,8.0,791618.0,0.58,arrowright,arrowright,0
524xnvb3s1,VerticalHorizontal,-0.3,-4.5,VerticalHorizontal_-4.5000_-0.3000.png,A,9.0,793283.0,1.411,arrowright,arrowright,0
524xnvb3s1,VerticalHorizontal,0.3,-22.5,VerticalHorizontal_-22.500_0.30000.png,A,10.0,795784.0,0.478,arrowleft,arrowleft,0
524xnvb3s1,VerticalHorizontal,-0.12339,-40.5,VerticalHorizontal_-40.500_-0.12339.png,A,11.0,797252.0,0.426,arrowright,arrowright,0
524xnvb3s1,VerticalHorizontal,-0.0581,31.5,VerticalHorizontal_31.5000_-0.0581.png,A,12.0,798523.0,1.771,arrowleft,arrowright,1
524xnvb3s1,VerticalHorizontal,0.20298,-4.5,VerticalHorizontal_-4.5000_0.20298.png,A,13.0,801335.0,0.671,arrowleft,arrowleft,0
524xnvb3s1,VerticalHorizontal,-0.20298,-22.5,VerticalHorizontal_-22.500_-0.20298.png,A,14.0,802805.0,0.513,arrowright,arrowright,0
524xnvb3s1,VerticalHorizontal,-0.3,22.5,VerticalHorizontal_22.5000_-0.3000.png,A,15.0,804293.0,1.336,arrowright,arrowright,0
524xnvb3s1,VerticalHorizontal,-0.3,40.5,VerticalHorizontal_40.5000_-0.3000.png,A,16.0,806376.0,1.15,arrowright,arrowright,0
524xnvb3s1,VerticalHorizontal,0.12339,40.5,VerticalHorizontal_40.5000_0.12339.png,A,17.0,808408.0,4.214,arrowleft,arrowleft,0
524xnvb3s1,VerticalHorizontal,-0.0581,-4.5,VerticalHorizontal_-4.5000_-0.0581.png,A,18.0,813627.0,3.787,arrowright,arrowright,0
524xnvb3s1,VerticalHorizontal,-0.20298,-31.5,VerticalHorizontal_-31.500_-0.20298.png,A,19.0,818040.0,0.662,arrowright,arrowright,0
524xnvb3s1,VerticalHorizontal,0.0581,22.5,VerticalHorizontal_22.5000_0.05810.png,A,20.0,819647.0,1.151,arrowleft,arrowleft,0
524xnvb3s1,VerticalHorizontal,0.12339,-13.5,VerticalHorizontal_-13.500_0.12339.png,A,21.0,821556.0,0.938,arrowleft,arrowleft,0
524xnvb3s1,VerticalHorizontal,0.20298,-31.5,VerticalHorizontal_-31.500_0.20298.png,A,22.0,823375.0,0.663,arrowleft,arrowleft,0
524xnvb3s1,VerticalHorizontal,-0.3,13.5,VerticalHorizontal_13.5000_-0.3000.png,A,23.0,824761.0,0.51,arrowright,arrowright,0
524xnvb3s1,VerticalHorizontal,0.0581,-22.5,VerticalHorizontal_-22.500_0.05810.png,A,24.0,825957.0,1.025,arrowleft,arrowleft,0
524xnvb3s1,VerticalHorizontal,-0.0581,22.5,VerticalHorizontal_22.5000_-0.0581.png,A,25.0,827780.0,1.114,arrowleft,arrowright,1
524xnvb3s1,VerticalHorizontal,-0.0581,40.5,VerticalHorizontal_40.5000_-0.0581.png,A,26.0,829696.0,0.63,arrowleft,arrowright,1
524xnvb3s1,VerticalHorizontal,-0.20298,-13.5,VerticalHorizontal_-13.500_-0.20298.png,A,27.0,831264.0,0.493,arrowright,arrowright,0
524xnvb3s1,VerticalHorizontal,-0.20298,4.5,VerticalHorizontal_4.50000_-0.20298.png,A,28.0,832370.0,0.572,arrowright,arrowright,0
524xnvb3s1,VerticalHorizontal,0.3,-4.5,VerticalHorizontal_-4.5000_0.30000.png,A,29.0,833744.0,0.51,arrowleft,arrowleft,0
524xnvb3s1,VerticalHorizontal,0.12339,13.5,VerticalHorizontal_13.5000_0.12339.png,A,30.0,835360.0,0.91,arrowleft,arrowleft,0
524xnvb3s1,VerticalHorizontal,0.3,22.5,VerticalHorizontal_22.5000_0.30000.png,A,31.0,836989.0,0.729,arrowleft,arrowleft,0
524xnvb3s1,VerticalHorizontal,0.12339,22.5,VerticalHorizontal_22.5000_0.12339.png,A,32.0,838398.0,0.808,arrowright,arrowleft,1
524xnvb3s1,VerticalHorizontal,-0.12339,40.5,VerticalHorizontal_40.5000_-0.12339.png,A,33.0,840253.0,0.546,arrowleft,arrowright,1
524xnvb3s1,VerticalHorizontal,0.12339,-4.5,VerticalHorizontal_-4.5000_0.12339.png,A,34.0,841711.0,3.304,arrowleft,arrowleft,0
524xnvb3s1,VerticalHorizontal,0.0581,-4.5,VerticalHorizontal_-4.5000_0.05810.png,A,35.0,845642.0,0.716,arrowleft,arrowleft,0
524xnvb3s1,VerticalHorizontal,0.0581,40.5,VerticalHorizontal_40.5000_0.05810.png,A,36.0,847171.0,0.5,arrowright,arrowleft,1
524xnvb3s1,VerticalHorizontal,0.3,4.5,VerticalHorizontal_4.50000_0.30000.png,A,37.0,848767.0,0.76,arrowleft,arrowleft,0
524xnvb3s1,VerticalHorizontal,0.20298,40.5,VerticalHorizontal_40.5000_0.20298.png,A,38.0,850470.0,1.649,arrowleft,arrowleft,0
524xnvb3s1,VerticalHorizontal,-0.3,31.5,VerticalHorizontal_31.5000_-0.3000.png,A,39.0,853109.0,1.05,arrowright,arrowright,0
524xnvb3s1,VerticalHorizontal,-0.12339,31.5,VerticalHorizontal_31.5000_-0.12339.png,A,40.0,854914.0,1.557,arrowright,arrowright,0
524xnvb3s1,VerticalHorizontal,0.0581,13.5,VerticalHorizontal_13.5000_0.05810.png,A,41.0,857480.0,1.815,arrowleft,arrowleft,0
524xnvb3s1,VerticalHorizontal,-0.0581,-40.5,VerticalHorizontal_-40.500_-0.0581.png,A,42.0,860088.0,1.079,arrowright,arrowright,0
524xnvb3s1,VerticalHorizontal,0.20298,-40.5,VerticalHorizontal_-40.500_0.20298.png,A,43.0,861828.0,0.491,arrowleft,arrowleft,0
524xnvb3s1,VerticalHorizontal,0.12339,-40.5,VerticalHorizontal_-40.500_0.12339.png,A,44.0,863032.0,0.535,arrowleft,arrowleft,0
524xnvb3s1,VerticalHorizontal,0.3,40.5,VerticalHorizontal_40.5000_0.30000.png,A,45.0,864638.0,0.897,arrowleft,arrowleft,0
524xnvb3s1,VerticalHorizontal,0.3,-31.5,VerticalHorizontal_-31.500_0.30000.png,A,46.0,866634.0,0.518,arrowleft,arrowleft,0
524xnvb3s1,VerticalHorizontal,-0.3,-31.5,VerticalHorizontal_-31.500_-0.3000.png,A,47.0,868096.0,0.463,arrowright,arrowright,0
524xnvb3s1,VerticalHorizontal,-0.20298,-4.5,VerticalHorizontal_-4.5000_-0.20298.png,A,48.0,869587.0,1.068,arrowright,arrowright,0
524xnvb3s1,VerticalHorizontal,0.20298,31.5,VerticalHorizontal_31.5000_0.20298.png,A,49.0,871394.0,0.693,arrowleft,arrowleft,0
524xnvb3s1,VerticalHorizontal,0.12339,-31.5,VerticalHorizontal_-31.500_0.12339.png,A,50.0,872886.0,0.57,arrowleft,arrowleft,0
524xnvb3s1,VerticalHorizontal,0.3,13.5,VerticalHorizontal_13.5000_0.30000.png,A,51.0,874167.0,0.616,arrowleft,arrowleft,0
524xnvb3s1,VerticalHorizontal,0.20298,-22.5,VerticalHorizontal_-22.500_0.20298.png,A,52.0,875729.0,0.59,arrowleft,arrowleft,0
524xnvb3s1,VerticalHorizontal,-0.20298,13.5,VerticalHorizontal_13.5000_-0.20298.png,A,53.0,877273.0,0.575,arrowright,arrowright,0
524xnvb3s1,VerticalHorizontal,-0.3,4.5,VerticalHorizontal_4.50000_-0.3000.png,A,54.0,878838.0,0.537,arrowright,arrowright,0
524xnvb3s1,VerticalHorizontal,-0.20298,40.5,VerticalHorizontal_40.5000_-0.20298.png,A,55.0,880173.0,0.49,arrowleft,arrowright,1
524xnvb3s1,VerticalHorizontal,-0.12339,22.5,VerticalHorizontal_22.5000_-0.12339.png,A,56.0,881459.0,2.332,arrowright,arrowright,0
524xnvb3s1,VerticalHorizontal,-0.3,-22.5,VerticalHorizontal_-22.500_-0.3000.png,A,57.0,884754.0,0.869,arrowright,arrowright,0
524xnvb3s1,VerticalHorizontal,0.20298,-13.5,VerticalHorizontal_-13.500_0.20298.png,A,58.0,886427.0,0.484,arrowleft,arrowleft,0
524xnvb3s1,VerticalHorizontal,0.20298,4.5,VerticalHorizontal_4.50000_0.20298.png,A,59.0,887558.0,0.641,arrowleft,arrowleft,0
524xnvb3s1,VerticalHorizontal,0.0581,-31.5,VerticalHorizontal_-31.500_0.05810.png,A,60.0,889275.0,0.597,arrowleft,arrowleft,0
524xnvb3s1,VerticalHorizontal,-0.0581,-13.5,VerticalHorizontal_-13.500_-0.0581.png,A,61.0,890644.0,1.323,arrowright,arrowright,0
524xnvb3s1,VerticalHorizontal,-0.12339,-4.5,VerticalHorizontal_-4.5000_-0.12339.png,A,62.0,893064.0,0.576,arrowright,arrowright,0
524xnvb3s1,VerticalHorizontal,-0.12339,-13.5,VerticalHorizontal_-13.500_-0.12339.png,A,63.0,894517.0,1.299,arrowright,arrowright,0
524xnvb3s1,VerticalHorizontal,0.12339,4.5,VerticalHorizontal_4.50000_0.12339.png,A,64.0,896612.0,0.595,arrowleft,arrowleft,0
524xnvb3s1,VerticalHorizontal,0.20298,22.5,VerticalHorizontal_22.5000_0.20298.png,A,65.0,898240.0,0.815,arrowleft,arrowleft,0
524xnvb3s1,VerticalHorizontal,0.20298,13.5,VerticalHorizontal_13.5000_0.20298.png,A,66.0,900032.0,0.56,arrowleft,arrowleft,0
524xnvb3s1,VerticalHorizontal,-0.3,-40.5,VerticalHorizontal_-40.500_-0.3000.png,A,67.0,901228.0,0.531,arrowright,arrowright,0
524xnvb3s1,VerticalHorizontal,0.12339,31.5,VerticalHorizontal_31.5000_0.12339.png,A,68.0,902446.0,2.674,arrowright,arrowleft,1
524xnvb3s1,VerticalHorizontal,0.0581,31.5,VerticalHorizontal_31.5000_0.05810.png,A,69.0,906014.0,2.817,arrowright,arrowleft,1
524xnvb3s1,VerticalHorizontal,0.3,-13.5,VerticalHorizontal_-13.500_0.30000.png,A,70.0,909864.0,0.551,arrowleft,arrowleft,0
524xnvb3s1,VerticalHorizontal,-0.0581,13.5,VerticalHorizontal_13.5000_-0.0581.png,A,71.0,911454.0,2.594,arrowleft,arrowright,1
524xnvb3s1,VerticalHorizontal,-0.12339,4.5,VerticalHorizontal_4.50000_-0.12339.png,A,72.0,914929.0,1.086,arrowright,arrowright,0
524xnvb3s1,VerticalHorizontal,0.0581,-13.5,VerticalHorizontal_-13.500_0.05810.png,A,73.0,917081.0,1.279,arrowleft,arrowleft,0
524xnvb3s1,VerticalHorizontal,-0.20298,31.5,VerticalHorizontal_31.5000_-0.20298.png,A,74.0,919068.0,0.979,arrowright,arrowright,0
524xnvb3s1,VerticalHorizontal,-0.0581,-31.5,VerticalHorizontal_-31.500_-0.0581.png,A,75.0,920790.0,0.826,arrowright,arrowright,0
524xnvb3s1,VerticalHorizontal,0.3,31.5,VerticalHorizontal_31.5000_0.30000.png,A,76.0,922357.0,0.73,arrowleft,arrowleft,0
524xnvb3s1,VerticalHorizontal,-0.0581,4.5,VerticalHorizontal_4.50000_-0.0581.png,A,77.0,923803.0,2.708,arrowright,arrowright,0
524xnvb3s1,VerticalHorizontal,-0.20298,-40.5,VerticalHorizontal_-40.500_-0.20298.png,A,78.0,927351.0,0.896,arrowright,arrowright,0
524xnvb3s1,VerticalHorizontal,-0.12339,13.5,VerticalHorizontal_13.5000_-0.12339.png,A,79.0,929194.0,1.83,arrowright,arrowright,0
524xnvb3s1,VerticalHorizontal,0.0581,-40.5,VerticalHorizontal_-40.500_0.05810.png,A,80.0,931983.0,0.672,arrowleft,arrowleft,0
524xnvb3s1,MullerLyer,-0.37364,-24.0,MullerLyer_-24.000_-0.37364.png,B,1.0,1075406.0,0.807,arrowdown,arrowdown,0
524xnvb3s1,MullerLyer,0.1337,18.0,MullerLyer_18.0000_0.13370.png,B,2.0,1076843.0,2.691,arrowdown,arrowup,1
524xnvb3s1,MullerLyer,0.045,18.0,MullerLyer_18.0000_0.04500.png,B,3.0,1080374.0,1.784,arrowdown,arrowup,1
524xnvb3s1,MullerLyer,0.37364,-30.0,MullerLyer_-30.000_0.37364.png,B,4.0,1083232.0,0.566,arrowup,arrowup,0
524xnvb3s1,MullerLyer,0.24183,30.0,MullerLyer_30.0000_0.24183.png,B,5.0,1084790.0,1.408,arrowdown,arrowup,1
524xnvb3s1,MullerLyer,-0.24183,-12.0,MullerLyer_-12.000_-0.24183.png,B,6.0,1086863.0,0.647,arrowdown,arrowdown,0
524xnvb3s1,MullerLyer,-0.1337,-18.0,MullerLyer_-18.000_-0.1337.png,B,7.0,1088307.0,0.731,arrowdown,arrowdown,0
524xnvb3s1,MullerLyer,-0.1337,-6.0,MullerLyer_-6.0000_-0.1337.png,B,8.0,1089879.0,1.015,arrowdown,arrowdown,0
524xnvb3s1,MullerLyer,0.24183,-18.0,MullerLyer_-18.000_0.24183.png,B,9.0,1091646.0,0.631,arrowup,arrowup,0
524xnvb3s1,MullerLyer,0.045,-12.0,MullerLyer_-12.000_0.04500.png,B,10.0,1093374.0,0.68,arrowup,arrowup,0
524xnvb3s1,MullerLyer,-0.1337,-24.0,MullerLyer_-24.000_-0.1337.png,B,11.0,1094723.0,0.523,arrowdown,arrowdown,0
524xnvb3s1,MullerLyer,0.24183,-6.0,MullerLyer_-6.0000_0.24183.png,B,12.0,1096218.0,0.517,arrowup,arrowup,0
524xnvb3s1,MullerLyer,0.24183,-12.0,MullerLyer_-12.000_0.24183.png,B,13.0,1097508.0,0.594,arrowup,arrowup,0
524xnvb3s1,MullerLyer,0.045,-18.0,MullerLyer_-18.000_0.04500.png,B,14.0,1098880.0,0.574,arrowup,arrowup,0
524xnvb3s1,MullerLyer,0.24183,6.0,MullerLyer_6.00000_0.24183.png,B,15.0,1100187.0,0.714,arrowup,arrowup,0
524xnvb3s1,MullerLyer,-0.24183,18.0,MullerLyer_18.0000_-0.24183.png,B,16.0,1101557.0,0.593,arrowdown,arrowdown,0
524xnvb3s1,MullerLyer,-0.37364,18.0,MullerLyer_18.0000_-0.37364.png,B,17.0,1103130.0,0.756,arrowdown,arrowdown,0
524xnvb3s1,MullerLyer,0.1337,12.0,MullerLyer_12.0000_0.13370.png,B,18.0,1104965.0,0.857,arrowdown,arrowup,1
524xnvb3s1,MullerLyer,-0.37364,-18.0,MullerLyer_-18.000_-0.37364.png,B,19.0,1106924.0,0.69,arrowdown,arrowdown,0
524xnvb3s1,MullerLyer,-0.1337,-30.0,MullerLyer_-30.000_-0.1337.png,B,20.0,1108250.0,0.531,arrowdown,arrowdown,0
524xnvb3s1,MullerLyer,0.1337,-30.0,MullerLyer_-30.000_0.13370.png,B,21.0,1109751.0,0.544,arrowup,arrowup,0
524xnvb3s1,MullerLyer,-0.24183,30.0,MullerLyer_30.0000_-0.24183.png,B,22.0,1111057.0,6.181,arrowdown,arrowdown,0
524xnvb3s1,MullerLyer,0.24183,-24.0,MullerLyer_-24.000_0.24183.png,B,23.0,1118174.0,0.56,arrowup,arrowup,0
524xnvb3s1,MullerLyer,-0.045,-18.0,MullerLyer_-18.000_-0.0450.png,B,24.0,1119685.0,0.577,arrowdown,arrowdown,0
524xnvb3s1,MullerLyer,0.37364,6.0,MullerLyer_6.00000_0.37364.png,B,25.0,1121315.0,0.539,arrowup,arrowup,0
524xnvb3s1,MullerLyer,0.1337,6.0,MullerLyer_6.00000_0.13370.png,B,26.0,1122529.0,1.741,arrowup,arrowup,0
524xnvb3s1,MullerLyer,0.045,6.0,MullerLyer_6.00000_0.04500.png,B,27.0,1125351.0,4.623,arrowdown,arrowup,1
524xnvb3s1,MullerLyer,0.37364,30.0,MullerLyer_30.0000_0.37364.png,B,28.0,1130996.0,1.434,arrowup,arrowup,0
524xnvb3s1,MullerLyer,-0.24183,-6.0,MullerLyer_-6.0000_-0.24183.png,B,29.0,1133136.0,0.846,arrowdown,arrowdown,0
524xnvb3s1,MullerLyer,0.1337,30.0,MullerLyer_30.0000_0.13370.png,B,30.0,1134974.0,1.848,arrowdown,arrowup,1
524xnvb3s1,MullerLyer,0.24183,12.0,MullerLyer_12.0000_0.24183.png,B,31.0,1137766.0,0.784,arrowup,arrowup,0
524xnvb3s1,MullerLyer,-0.24183,-30.0,MullerLyer_-30.000_-0.24183.png,B,32.0,1139341.0,0.921,arrowdown,arrowdown,0
524xnvb3s1,MullerLyer,-0.045,-6.0,MullerLyer_-6.0000_-0.0450.png,B,33.0,1141250.0,1.996,arrowdown,arrowdown,0
524xnvb3s1,MullerLyer,-0.24183,24.0,MullerLyer_24.0000_-0.24183.png,B,34.0,1143886.0,0.824,arrowup,arrowdown,1
524xnvb3s1,MullerLyer,0.1337,-6.0,MullerLyer_-6.0000_0.13370.png,B,35.0,1145609.0,1.317,arrowup,arrowup,0
524xnvb3s1,MullerLyer,-0.1337,18.0,MullerLyer_18.0000_-0.1337.png,B,36.0,1147659.0,0.795,arrowup,arrowdown,1
524xnvb3s1,MullerLyer,-0.045,30.0,MullerLyer_30.0000_-0.0450.png,B,37.0,1149470.0,2.192,arrowup,arrowdown,1
524xnvb3s1,MullerLyer,-0.24183,-18.0,MullerLyer_-18.000_-0.24183.png,B,38.0,1152575.0,0.815,arrowdown,arrowdown,0
524xnvb3s1,MullerLyer,-0.37364,12.0,MullerLyer_12.0000_-0.37364.png,B,39.0,1154008.0,0.894,arrowdown,arrowdown,0
524xnvb3s1,MullerLyer,-0.045,24.0,MullerLyer_24.0000_-0.0450.png,B,40.0,1155508.0,0.506,arrowup,arrowdown,1
524xnvb3s1,MullerLyer,0.24183,24.0,MullerLyer_24.0000_0.24183.png,B,41.0,1156916.0,2.562,arrowdown,arrowup,1
524xnvb3s1,MullerLyer,0.1337,-12.0,MullerLyer_-12.000_0.13370.png,B,42.0,1160442.0,0.988,arrowup,arrowup,0
524xnvb3s1,MullerLyer,0.24183,-30.0,MullerLyer_-30.000_0.24183.png,B,43.0,1162500.0,0.666,arrowup,arrowup,0
524xnvb3s1,MullerLyer,-0.045,-12.0,MullerLyer_-12.000_-0.0450.png,B,44.0,1163855.0,0.559,arrowdown,arrowdown,0
524xnvb3s1,MullerLyer,-0.24183,-24.0,MullerLyer_-24.000_-0.24183.png,B,45.0,1165178.0,0.668,arrowdown,arrowdown,0
524xnvb3s1,MullerLyer,-0.045,6.0,MullerLyer_6.00000_-0.0450.png,B,46.0,1166673.0,1.102,arrowup,arrowdown,1
524xnvb3s1,MullerLyer,-0.24183,6.0,MullerLyer_6.00000_-0.24183.png,B,47.0,1168606.0,0.64,arrowdown,arrowdown,0
524xnvb3s1,MullerLyer,0.37364,18.0,MullerLyer_18.0000_0.37364.png,B,48.0,1170141.0,0.938,arrowup,arrowup,0
524xnvb3s1,MullerLyer,0.045,12.0,MullerLyer_12.0000_0.04500.png,B,49.0,1171720.0,0.551,arrowdown,arrowup,1
524xnvb3s1,MullerLyer,0.045,-24.0,MullerLyer_-24.000_0.04500.png,B,50.0,1173151.0,0.464,arrowup,arrowup,0
524xnvb3s1,MullerLyer,0.37364,24.0,MullerLyer_24.0000_0.37364.png,B,51.0,1174398.0,4.256,arrowup,arrowup,0
524xnvb3s1,MullerLyer,0.045,30.0,MullerLyer_30.0000_0.04500.png,B,52.0,1179320.0,0.607,arrowdown,arrowup,1
524xnvb3s1,MullerLyer,-0.1337,-12.0,MullerLyer_-12.000_-0.1337.png,B,53.0,1180640.0,0.75,arrowdown,arrowdown,0
524xnvb3s1,MullerLyer,-0.37364,30.0,MullerLyer_30.0000_-0.37364.png,B,54.0,1182021.0,1.929,arrowdown,arrowdown,0
524xnvb3s1,MullerLyer,0.37364,-12.0,MullerLyer_-12.000_0.37364.png,B,55.0,1184641.0,0.621,arrowup,arrowup,0
524xnvb3s1,MullerLyer,-0.1337,30.0,MullerLyer_30.0000_-0.1337.png,B,56.0,1186131.0,2.075,arrowup,arrowdown,1
524xnvb3s1,MullerLyer,-0.045,18.0,MullerLyer_18.0000_-0.0450.png,B,57.0,1189165.0,0.953,arrowup,arrowdown,1
524xnvb3s1,MullerLyer,-0.37364,24.0,MullerLyer_24.0000_-0.37364.png,B,58.0,1191172.0,0.635,arrowdown,arrowdown,0
524xnvb3s1,MullerLyer,-0.045,-30.0,MullerLyer_-30.000_-0.0450.png,B,59.0,1192801.0,0.517,arrowdown,arrowdown,0
524xnvb3s1,MullerLyer,0.045,-6.0,MullerLyer_-6.0000_0.04500.png,B,60.0,1194025.0,0.661,arrowup,arrowup,0
524xnvb3s1,MullerLyer,-0.37364,-30.0,MullerLyer_-30.000_-0.37364.png,B,61.0,1195566.0,0.472,arrowdown,arrowdown,0
524xnvb3s1,MullerLyer,0.045,-30.0,MullerLyer_-30.000_0.04500.png,B,62.0,1196795.0,0.531,arrowup,arrowup,0
524xnvb3s1,MullerLyer,0.37364,-6.0,MullerLyer_-6.0000_0.37364.png,B,63.0,1198160.0,0.558,arrowup,arrowup,0
524xnvb3s1,MullerLyer,-0.1337,24.0,MullerLyer_24.0000_-0.1337.png,B,64.0,1199597.0,1.057,arrowup,arrowdown,1
524xnvb3s1,MullerLyer,0.37364,-18.0,MullerLyer_-18.000_0.37364.png,B,65.0,1201319.0,0.583,arrowup,arrowup,0
524xnvb3s1,MullerLyer,-0.37364,6.0,MullerLyer_6.00000_-0.37364.png,B,66.0,1202569.0,0.557,arrowdown,arrowdown,0
524xnvb3s1,MullerLyer,-0.37364,-12.0,MullerLyer_-12.000_-0.37364.png,B,67.0,1204156.0,0.579,arrowdown,arrowdown,0
524xnvb3s1,MullerLyer,-0.045,12.0,MullerLyer_12.0000_-0.0450.png,B,68.0,1205461.0,0.546,arrowup,arrowdown,1
524xnvb3s1,MullerLyer,0.1337,-18.0,MullerLyer_-18.000_0.13370.png,B,69.0,1207056.0,0.495,arrowup,arrowup,0
524xnvb3s1,MullerLyer,0.37364,12.0,MullerLyer_12.0000_0.37364.png,B,70.0,1208500.0,0.707,arrowup,arrowup,0
524xnvb3s1,MullerLyer,-0.24183,12.0,MullerLyer_12.0000_-0.24183.png,B,71.0,1210274.0,1.029,arrowdown,arrowdown,0
524xnvb3s1,MullerLyer,0.37364,-24.0,MullerLyer_-24.000_0.37364.png,B,72.0,1212280.0,0.59,arrowup,arrowup,0
524xnvb3s1,MullerLyer,-0.1337,6.0,MullerLyer_6.00000_-0.1337.png,B,73.0,1213894.0,3.713,arrowdown,arrowdown,0
524xnvb3s1,MullerLyer,-0.37364,-6.0,MullerLyer_-6.0000_-0.37364.png,B,74.0,1218322.0,0.597,arrowdown,arrowdown,0
524xnvb3s1,MullerLyer,0.24183,18.0,MullerLyer_18.0000_0.24183.png,B,75.0,1219532.0,1.939,arrowup,arrowup,0
524xnvb3s1,MullerLyer,-0.045,-24.0,MullerLyer_-24.000_-0.0450.png,B,76.0,1222141.0,0.722,arrowdown,arrowdown,0
524xnvb3s1,MullerLyer,-0.1337,12.0,MullerLyer_12.0000_-0.1337.png,B,77.0,1223706.0,2.261,arrowup,arrowdown,1
524xnvb3s1,MullerLyer,0.1337,24.0,MullerLyer_24.0000_0.13370.png,B,78.0,1226750.0,0.649,arrowdown,arrowup,1
524xnvb3s1,MullerLyer,0.1337,-24.0,MullerLyer_-24.000_0.13370.png,B,79.0,1228263.0,0.568,arrowup,arrowup,0
524xnvb3s1,MullerLyer,0.045,24.0,MullerLyer_24.0000_0.04500.png,B,80.0,1229578.0,0.558,arrowdown,arrowup,1
524xnvb3s1,Ebbinghaus,0.41515,0.9,Ebbinghaus_0.90000_0.41515.png,B,1.0,1237368.0,2.535,arrowleft,arrowleft,0
524xnvb3s1,Ebbinghaus,0.41515,1.5,Ebbinghaus_1.50000_0.41515.png,B,2.0,1240598.0,0.961,arrowright,arrowleft,1
524xnvb3s1,Ebbinghaus,-0.05,-0.6,Ebbinghaus_-0.6000_-0.0500.png,B,3.0,1242541.0,0.794,arrowright,arrowright,0
524xnvb3s1,Ebbinghaus,0.2687,1.2,Ebbinghaus_1.20000_0.26870.png,B,4.0,1244227.0,2.148,arrowright,arrowleft,1
524xnvb3s1,Ebbinghaus,-0.41515,-0.9,Ebbinghaus_-0.9000_-0.41515.png,B,5.0,1247179.0,0.589,arrowright,arrowright,0
524xnvb3s1,Ebbinghaus,0.2687,0.9,Ebbinghaus_0.90000_0.26870.png,B,6.0,1248405.0,1.978,arrowleft,arrowleft,0
524xnvb3s1,Ebbinghaus,-0.2687,-0.6,Ebbinghaus_-0.6000_-0.2687.png,B,7.0,1251086.0,0.585,arrowright,arrowright,0
524xnvb3s1,Ebbinghaus,-0.2687,-1.2,Ebbinghaus_-1.2000_-0.2687.png,B,8.0,1252465.0,0.638,arrowright,arrowright,0
524xnvb3s1,Ebbinghaus,0.2687,0.3,Ebbinghaus_0.30000_0.26870.png,B,9.0,1254065.0,0.95,arrowleft,arrowleft,0
524xnvb3s1,Ebbinghaus,0.41515,-0.9,Ebbinghaus_-0.9000_0.41515.png,B,10.0,1255639.0,0.808,arrowleft,arrowleft,0
524xnvb3s1,Ebbinghaus,0.14856,-0.3,Ebbinghaus_-0.3000_0.14856.png,B,11.0,1257444.0,0.899,arrowleft,arrowleft,0
524xnvb3s1,Ebbinghaus,-0.14856,1.5,Ebbinghaus_1.50000_-0.14856.png,B,12.0,1259415.0,1.4,arrowleft,arrowright,1
524xnvb3s1,Ebbinghaus,0.14856,1.2,Ebbinghaus_1.20000_0.14856.png,B,13.0,1261686.0,0.985,arrowright,arrowleft,1
524xnvb3s1,Ebbinghaus,0.14856,-1.5,Ebbinghaus_-1.5000_0.14856.png,B,14.0,1263717.0,0.626,arrowleft,arrowleft,0
524xnvb3s1,Ebbinghaus,-0.41515,-1.5,Ebbinghaus_-1.5000_-0.41515.png,B,15.0,1265379.0,0.509,arrowright,arrowright,0
524xnvb3s1,Ebbinghaus,0.05,-1.2,Ebbinghaus_-1.2000_0.05000.png,B,16.0,1266694.0,0.602,arrowleft,arrowleft,0
524xnvb3s1,Ebbinghaus,0.05,0.6,Ebbinghaus_0.60000_0.05000.png,B,17.0,1267965.0,2.475,arrowright,arrowleft,1
524xnvb3s1,Ebbinghaus,-0.2687,0.3,Ebbinghaus_0.30000_-0.2687.png,B,18.0,1271186.0,3.181,arrowright,arrowright,0
524xnvb3s1,Ebbinghaus,0.41515,-0.6,Ebbinghaus_-0.6000_0.41515.png,B,19.0,1275398.0,0.561,arrowleft,arrowleft,0
524xnvb3s1,Ebbinghaus,0.05,0.3,Ebbinghaus_0.30000_0.05000.png,B,20.0,1276798.0,2.769,arrowright,arrowleft,1
524xnvb3s1,Ebbinghaus,-0.14856,0.3,Ebbinghaus_0.30000_-0.14856.png,B,21.0,1280317.0,2.93,arrowleft,arrowright,1
524xnvb3s1,Ebbinghaus,0.14856,-0.9,Ebbinghaus_-0.9000_0.14856.png,B,22.0,1284048.0,0.655,arrowleft,arrowleft,0
524xnvb3s1,Ebbinghaus,-0.2687,1.2,Ebbinghaus_1.20000_-0.2687.png,B,23.0,1285518.0,2.082,arrowleft,arrowright,1
524xnvb3s1,Ebbinghaus,0.14856,-1.2,Ebbinghaus_-1.2000_0.14856.png,B,24.0,1288455.0,0.64,arrowleft,arrowleft,0
524xnvb3s1,Ebbinghaus,-0.41515,0.9,Ebbinghaus_0.90000_-0.41515.png,B,25.0,1289918.0,1.185,arrowright,arrowright,0
524xnvb3s1,Ebbinghaus,-0.05,-0.9,Ebbinghaus_-0.9000_-0.0500.png,B,26.0,1291746.0,0.733,arrowright,arrowright,0
524xnvb3s1,Ebbinghaus,-0.05,1.5,Ebbinghaus_1.50000_-0.0500.png,B,27.0,1293593.0,0.598,arrowleft,arrowright,1
524xnvb3s1,Ebbinghaus,0.05,1.2,Ebbinghaus_1.20000_0.05000.png,B,28.0,1295235.0,0.804,arrowright,arrowleft,1
524xnvb3s1,Ebbinghaus,-0.05,0.9,Ebbinghaus_0.90000_-0.0500.png,B,29.0,1297126.0,4.313,arrowright,arrowright,0
524xnvb3s1,Ebbinghaus,-0.14856,1.2,Ebbinghaus_1.20000_-0.14856.png,B,30.0,1302332.0,0.684,arrowleft,arrowright,1
524xnvb3s1,Ebbinghaus,0.14856,-0.6,Ebbinghaus_-0.6000_0.14856.png,B,31.0,1303949.0,1.058,arrowleft,arrowleft,0
524xnvb3s1,Ebbinghaus,-0.14856,0.6,Ebbinghaus_0.60000_-0.14856.png,B,32.0,1305866.0,1.093,arrowleft,arrowright,1
524xnvb3s1,Ebbinghaus,0.2687,-0.3,Ebbinghaus_-0.3000_0.26870.png,B,33.0,1307847.0,0.545,arrowleft,arrowleft,0
524xnvb3s1,Ebbinghaus,-0.41515,0.6,Ebbinghaus_0.60000_-0.41515.png,B,34.0,1309341.0,0.539,arrowright,arrowright,0
524xnvb3s1,Ebbinghaus,0.41515,0.3,Ebbinghaus_0.30000_0.41515.png,B,35.0,1310569.0,0.598,arrowleft,arrowleft,0
524xnvb3s1,Ebbinghaus,0.05,-0.9,Ebbinghaus_-0.9000_0.05000.png,B,36.0,1312040.0,1.568,arrowleft,arrowleft,0
524xnvb3s1,Ebbinghaus,0.2687,-0.9,Ebbinghaus_-0.9000_0.26870.png,B,37.0,1314521.0,1.462,arrowleft,arrowleft,0
524xnvb3s1,Ebbinghaus,-0.2687,0.9,Ebbinghaus_0.90000_-0.2687.png,B,38.0,1317083.0,2.188,arrowleft,arrowright,1
524xnvb3s1,Ebbinghaus,0.2687,1.5,Ebbinghaus_1.50000_0.26870.png,B,39.0,1320037.0,0.843,arrowright,arrowleft,1
524xnvb3s1,Ebbinghaus,-0.41515,1.2,Ebbinghaus_1.20000_-0.41515.png,B,40.0,1321950.0,1.609,arrowleft,arrowright,1
524xnvb3s1,Ebbinghaus,-0.14856,-0.6,Ebbinghaus_-0.6000_-0.14856.png,B,41.0,1324366.0,0.618,arrowright,arrowright,0
524xnvb3s1,Ebbinghaus,-0.41515,0.3,Ebbinghaus_0.30000_-0.41515.png,B,42.0,1325946.0,0.63,arrowright,arrowright,0
524xnvb3s1,Ebbinghaus,-0.41515,-0.3,Ebbinghaus_-0.3000_-0.41515.png,B,43.0,1327629.0,0.699,arrowright,arrowright,0
524xnvb3s1,Ebbinghaus,-0.14856,-1.5,Ebbinghaus_-1.5000_-0.14856.png,B,44.0,1329070.0,0.786,arrowright,arrowright,0
524xnvb3s1,Ebbinghaus,0.14856,0.6,Ebbinghaus_0.60000_0.14856.png,B,45.0,1330582.0,1.554,arrowright,arrowleft,1
524xnvb3s1,Ebbinghaus,-0.05,0.3,Ebbinghaus_0.30000_-0.0500.png,B,46.0,1333073.0,1.455,arrowright,arrowright,0
524xnvb3s1,Ebbinghaus,0.14856,1.5,Ebbinghaus_1.50000_0.14856.png,B,47.0,1335512.0,0.712,arrowright,arrowleft,1
524xnvb3s1,Ebbinghaus,0.41515,1.2,Ebbinghaus_1.20000_0.41515.png,B,48.0,1337069.0,0.787,arrowright,arrowleft,1
524xnvb3s1,Ebbinghaus,0.2687,-0.6,Ebbinghaus_-0.6000_0.26870.png,B,49.0,1338968.0,0.615,arrowleft,arrowleft,0
524xnvb3s1,Ebbinghaus,-0.14856,-0.9,Ebbinghaus_-0.9000_-0.14856.png,B,50.0,1340378.0,0.517,arrowright,arrowright,0
524xnvb3s1,Ebbinghaus,0.05,-1.5,Ebbinghaus_-1.5000_0.05000.png,B,51.0,1341989.0,0.515,arrowleft,arrowleft,0
524xnvb3s1,Ebbinghaus,0.41515,-1.2,Ebbinghaus_-1.2000_0.41515.png,B,52.0,1343368.0,0.568,arrowleft,arrowleft,0
524xnvb3s1,Ebbinghaus,-0.14856,-0.3,Ebbinghaus_-0.3000_-0.14856.png,B,53.0,1344937.0,0.551,arrowright,arrowright,0
524xnvb3s1,Ebbinghaus,0.41515,0.6,Ebbinghaus_0.60000_0.41515.png,B,54.0,1346241.0,0.599,arrowright,arrowleft,1
524xnvb3s1,Ebbinghaus,0.2687,-1.5,Ebbinghaus_-1.5000_0.26870.png,B,55.0,1347822.0,0.586,arrowleft,arrowleft,0
524xnvb3s1,Ebbinghaus,-0.2687,-1.5,Ebbinghaus_-1.5000_-0.2687.png,B,56.0,1349177.0,0.519,arrowright,arrowright,0
524xnvb3s1,Ebbinghaus,0.41515,-0.3,Ebbinghaus_-0.3000_0.41515.png,B,57.0,1350715.0,0.517,arrowleft,arrowleft,0
524xnvb3s1,Ebbinghaus,-0.05,-1.2,Ebbinghaus_-1.2000_-0.0500.png,B,58.0,1352314.0,0.525,arrowright,arrowright,0
524xnvb3s1,Ebbinghaus,-0.2687,1.5,Ebbinghaus_1.50000_-0.2687.png,B,59.0,1353752.0,0.68,arrowleft,arrowright,1
524xnvb3s1,Ebbinghaus,-0.2687,-0.3,Ebbinghaus_-0.3000_-0.2687.png,B,60.0,1355117.0,0.668,arrowright,arrowright,0
524xnvb3s1,Ebbinghaus,-0.41515,-0.6,Ebbinghaus_-0.6000_-0.41515.png,B,61.0,1356813.0,0.539,arrowright,arrowright,0
524xnvb3s1,Ebbinghaus,-0.2687,-0.9,Ebbinghaus_-0.9000_-0.2687.png,B,62.0,1357977.0,0.582,arrowright,arrowright,0
524xnvb3s1,Ebbinghaus,-0.41515,1.5,Ebbinghaus_1.50000_-0.41515.png,B,63.0,1359585.0,2.399,arrowright,arrowright,0
524xnvb3s1,Ebbinghaus,-0.05,1.2,Ebbinghaus_1.20000_-0.0500.png,B,64.0,1362673.0,0.903,arrowleft,arrowright,1
524xnvb3s1,Ebbinghaus,0.2687,-1.2,Ebbinghaus_-1.2000_0.26870.png,B,65.0,1364274.0,0.67,arrowleft,arrowleft,0
524xnvb3s1,Ebbinghaus,-0.14856,-1.2,Ebbinghaus_-1.2000_-0.14856.png,B,66.0,1365817.0,1.591,arrowright,arrowright,0
524xnvb3s1,Ebbinghaus,0.05,-0.3,Ebbinghaus_-0.3000_0.05000.png,B,67.0,1368401.0,2.815,arrowleft,arrowleft,0
524xnvb3s1,Ebbinghaus,0.14856,0.9,Ebbinghaus_0.90000_0.14856.png,B,68.0,1372103.0,1.346,arrowright,arrowleft,1
524xnvb3s1,Ebbinghaus,0.05,1.5,Ebbinghaus_1.50000_0.05000.png,B,69.0,1374363.0,1.621,arrowright,arrowleft,1
524xnvb3s1,Ebbinghaus,-0.14856,0.9,Ebbinghaus_0.90000_-0.14856.png,B,70.0,1376985.0,3.919,arrowright,arrowright,0
524xnvb3s1,Ebbinghaus,-0.41515,-1.2,Ebbinghaus_-1.2000_-0.41515.png,B,71.0,1381556.0,1.156,arrowright,arrowright,0
524xnvb3s1,Ebbinghaus,-0.05,-1.5,Ebbinghaus_-1.5000_-0.0500.png,B,72.0,1383696.0,1.536,arrowright,arrowright,0
