Participant,Illusion_Type,Illusion_Difference,Illusion_Strength,File,Block,Trial,ISI,RT,Response,Response_Correct,Error
qjrzelgz6k,MullerLyer,-0.18509,-15.0,MullerLyer_-15.000_-0.18509.png,A,1.0,246885.0,0.914,arrowdown,arrowdown,0
qjrzelgz6k,MullerLyer,0.45,-27.0,MullerLyer_-27.000_0.45000.png,A,2.0,248841.0,0.67,arrowup,arrowup,0
qjrzelgz6k,MullerLyer,-0.45,27.0,MullerLyer_27.0000_-0.4500.png,A,3.0,250303.0,0.776,arrowdown,arrowdown,0
qjrzelgz6k,MullerLyer,0.30447,-21.0,MullerLyer_-21.000_0.30447.png,A,4.0,252176.0,0.55,arrowup,arrowup,0
qjrzelgz6k,MullerLyer,-0.45,-15.0,MullerLyer_-15.000_-0.4500.png,A,5.0,253657.0,0.51,arrowdown,arrowdown,0
qjrzelgz6k,MullerLyer,-0.08716,-15.0,MullerLyer_-15.000_-0.08716.png,A,6.0,254932.0,0.828,arrowdown,arrowdown,0
qjrzelgz6k,MullerLyer,0.18509,-15.0,MullerLyer_-15.000_0.18509.png,A,7.0,256599.0,0.6,arrowup,arrowup,0
qjrzelgz6k,MullerLyer,-0.45,21.0,MullerLyer_21.0000_-0.4500.png,A,8.0,258294.0,0.761,arrowdown,arrowdown,0
qjrzelgz6k,MullerLyer,0.45,15.0,MullerLyer_15.0000_0.45000.png,A,9.0,259936.0,0.672,arrowup,arrowup,0
qjrzelgz6k,MullerLyer,-0.18509,-21.0,MullerLyer_-21.000_-0.18509.png,A,10.0,261650.0,0.685,arrowdown,arrowdown,0
qjrzelgz6k,MullerLyer,-0.30447,-9.0,MullerLyer_-9.0000_-0.30447.png,A,11.0,263088.0,0.654,arrowdown,arrowdown,0
qjrzelgz6k,MullerLyer,-0.08716,-3.0,MullerLyer_-3.0000_-0.08716.png,A,12.0,264822.0,1.254,arrowdown,arrowdown,0
qjrzelgz6k,MullerLyer,0.45,-15.0,MullerLyer_-15.000_0.45000.png,A,13.0,267148.0,0.563,arrowup,arrowup,0
qjrzelgz6k,MullerLyer,0.08716,-3.0,MullerLyer_-3.0000_0.08716.png,A,14.0,268417.0,1.23,arrowup,arrowup,0
qjrzelgz6k,MullerLyer,-0.18509,-27.0,MullerLyer_-27.000_-0.18509.png,A,15.0,270506.0,0.789,arrowdown,arrowdown,0
qjrzelgz6k,MullerLyer,0.18509,3.0,MullerLyer_3.00000_0.18509.png,A,16.0,272231.0,0.744,arrowup,arrowup,0
qjrzelgz6k,MullerLyer,0.45,27.0,MullerLyer_27.0000_0.45000.png,A,17.0,273896.0,1.359,arrowup,arrowup,0
qjrzelgz6k,MullerLyer,-0.30447,-15.0,MullerLyer_-15.000_-0.30447.png,A,18.0,276262.0,0.545,arrowdown,arrowdown,0
qjrzelgz6k,MullerLyer,0.18509,-3.0,MullerLyer_-3.0000_0.18509.png,A,19.0,277580.0,0.987,arrowup,arrowup,0
qjrzelgz6k,MullerLyer,-0.18509,15.0,MullerLyer_15.0000_-0.18509.png,A,20.0,279296.0,1.407,arrowdown,arrowdown,0
qjrzelgz6k,MullerLyer,0.18509,-21.0,MullerLyer_-21.000_0.18509.png,A,21.0,281483.0,0.708,arrowup,arrowup,0
qjrzelgz6k,MullerLyer,0.08716,-27.0,MullerLyer_-27.000_0.08716.png,A,22.0,282793.0,1.062,arrowup,arrowup,0
qjrzelgz6k,MullerLyer,0.08716,9.0,MullerLyer_9.00000_0.08716.png,A,23.0,284590.0,0.937,arrowdown,arrowup,1
qjrzelgz6k,MullerLyer,-0.18509,9.0,MullerLyer_9.00000_-0.18509.png,A,24.0,286521.0,1.358,arrowdown,arrowdown,0
qjrzelgz6k,MullerLyer,0.30447,-3.0,MullerLyer_-3.0000_0.30447.png,A,25.0,288603.0,0.877,arrowup,arrowup,0
qjrzelgz6k,MullerLyer,0.18509,27.0,MullerLyer_27.0000_0.18509.png,A,26.0,290445.0,1.179,arrowdown,arrowup,1
qjrzelgz6k,MullerLyer,0.30447,-15.0,MullerLyer_-15.000_0.30447.png,A,27.0,292574.0,0.705,arrowup,arrowup,0
qjrzelgz6k,MullerLyer,-0.18509,3.0,MullerLyer_3.00000_-0.18509.png,A,28.0,294300.0,1.195,arrowdown,arrowdown,0
qjrzelgz6k,MullerLyer,-0.45,3.0,MullerLyer_3.00000_-0.4500.png,A,29.0,296347.0,0.708,arrowdown,arrowdown,0
qjrzelgz6k,MullerLyer,-0.08716,27.0,MullerLyer_27.0000_-0.08716.png,A,30.0,297950.0,2.16,arrowup,arrowdown,1
qjrzelgz6k,MullerLyer,0.30447,21.0,MullerLyer_21.0000_0.30447.png,A,31.0,300928.0,1.327,arrowup,arrowup,0
qjrzelgz6k,MullerLyer,-0.30447,-27.0,MullerLyer_-27.000_-0.30447.png,A,32.0,302882.0,0.733,arrowdown,arrowdown,0
qjrzelgz6k,MullerLyer,-0.30447,9.0,MullerLyer_9.00000_-0.30447.png,A,33.0,304613.0,0.986,arrowdown,arrowdown,0
qjrzelgz6k,MullerLyer,0.45,-9.0,MullerLyer_-9.0000_0.45000.png,A,34.0,306660.0,0.755,arrowup,arrowup,0
qjrzelgz6k,MullerLyer,0.30447,15.0,MullerLyer_15.0000_0.30447.png,A,35.0,308522.0,1.253,arrowup,arrowup,0
qjrzelgz6k,MullerLyer,0.08716,15.0,MullerLyer_15.0000_0.08716.png,A,36.0,310506.0,1.525,arrowdown,arrowup,1
qjrzelgz6k,MullerLyer,-0.45,-27.0,MullerLyer_-27.000_-0.4500.png,A,37.0,313046.0,0.68,arrowdown,arrowdown,0
qjrzelgz6k,MullerLyer,0.45,3.0,MullerLyer_3.00000_0.45000.png,A,38.0,314707.0,0.74,arrowup,arrowup,0
qjrzelgz6k,MullerLyer,-0.30447,15.0,MullerLyer_15.0000_-0.30447.png,A,39.0,316153.0,1.205,arrowdown,arrowdown,0
qjrzelgz6k,MullerLyer,0.18509,-9.0,MullerLyer_-9.0000_0.18509.png,A,40.0,318369.0,0.886,arrowup,arrowup,0
qjrzelgz6k,MullerLyer,0.30447,-9.0,MullerLyer_-9.0000_0.30447.png,A,41.0,320178.0,0.684,arrowup,arrowup,0
qjrzelgz6k,MullerLyer,-0.18509,-9.0,MullerLyer_-9.0000_-0.18509.png,A,42.0,321790.0,0.704,arrowdown,arrowdown,0
qjrzelgz6k,MullerLyer,-0.08716,-27.0,MullerLyer_-27.000_-0.08716.png,A,43.0,323572.0,0.691,arrowdown,arrowdown,0
qjrzelgz6k,MullerLyer,0.45,-3.0,MullerLyer_-3.0000_0.45000.png,A,44.0,324884.0,0.891,arrowup,arrowup,0
qjrzelgz6k,MullerLyer,0.30447,-27.0,MullerLyer_-27.000_0.30447.png,A,45.0,326680.0,0.766,arrowup,arrowup,0
qjrzelgz6k,MullerLyer,0.08716,21.0,MullerLyer_21.0000_0.08716.png,A,46.0,328160.0,0.822,arrowdown,arrowup,1
qjrzelgz6k,MullerLyer,-0.45,-3.0,MullerLyer_-3.0000_-0.4500.png,A,47.0,329964.0,0.739,arrowdown,arrowdown,0
qjrzelgz6k,MullerLyer,-0.30447,-3.0,MullerLyer_-3.0000_-0.30447.png,A,48.0,331556.0,0.714,arrowdown,arrowdown,0
qjrzelgz6k,MullerLyer,0.08716,27.0,MullerLyer_27.0000_0.08716.png,A,49.0,333381.0,2.146,arrowdown,arrowup,1
qjrzelgz6k,MullerLyer,-0.08716,-9.0,MullerLyer_-9.0000_-0.08716.png,A,50.0,336340.0,2.251,arrowdown,arrowdown,0
qjrzelgz6k,MullerLyer,-0.30447,21.0,MullerLyer_21.0000_-0.30447.png,A,51.0,339671.0,1.6,arrowdown,arrowdown,0
qjrzelgz6k,MullerLyer,-0.08716,3.0,MullerLyer_3.00000_-0.08716.png,A,52.0,341962.0,1.493,arrowdown,arrowdown,0
qjrzelgz6k,MullerLyer,-0.18509,27.0,MullerLyer_27.0000_-0.18509.png,A,53.0,344290.0,1.685,arrowdown,arrowdown,0
qjrzelgz6k,MullerLyer,-0.45,9.0,MullerLyer_9.00000_-0.4500.png,A,54.0,346728.0,0.863,arrowdown,arrowdown,0
qjrzelgz6k,MullerLyer,-0.18509,21.0,MullerLyer_21.0000_-0.18509.png,A,55.0,348254.0,1.841,arrowdown,arrowdown,0
qjrzelgz6k,MullerLyer,0.45,-21.0,MullerLyer_-21.000_0.45000.png,A,56.0,350817.0,1.038,arrowup,arrowup,0
qjrzelgz6k,MullerLyer,-0.08716,15.0,MullerLyer_15.0000_-0.08716.png,A,57.0,352635.0,1.875,arrowdown,arrowdown,0
qjrzelgz6k,MullerLyer,-0.30447,-21.0,MullerLyer_-21.000_-0.30447.png,A,58.0,355548.0,0.723,arrowdown,arrowdown,0
qjrzelgz6k,MullerLyer,0.08716,-21.0,MullerLyer_-21.000_0.08716.png,A,59.0,357109.0,1.057,arrowup,arrowup,0
qjrzelgz6k,MullerLyer,0.18509,15.0,MullerLyer_15.0000_0.18509.png,A,60.0,359145.0,2.277,arrowup,arrowup,0
qjrzelgz6k,MullerLyer,-0.08716,-21.0,MullerLyer_-21.000_-0.08716.png,A,61.0,362226.0,0.861,arrowdown,arrowdown,0
qjrzelgz6k,MullerLyer,0.45,9.0,MullerLyer_9.00000_0.45000.png,A,62.0,363780.0,0.875,arrowup,arrowup,0
qjrzelgz6k,MullerLyer,-0.45,-9.0,MullerLyer_-9.0000_-0.4500.png,A,63.0,365505.0,0.653,arrowdown,arrowdown,0
qjrzelgz6k,MullerLyer,0.30447,27.0,MullerLyer_27.0000_0.30447.png,A,64.0,367263.0,1.68,arrowup,arrowup,0
qjrzelgz6k,MullerLyer,-0.18509,-3.0,MullerLyer_-3.0000_-0.18509.png,A,65.0,369555.0,1.163,arrowdown,arrowdown,0
qjrzelgz6k,MullerLyer,-0.45,-21.0,MullerLyer_-21.000_-0.4500.png,A,66.0,371558.0,0.673,arrowdown,arrowdown,0
qjrzelgz6k,MullerLyer,0.30447,9.0,MullerLyer_9.00000_0.30447.png,A,67.0,372924.0,1.09,arrowup,arrowup,0
qjrzelgz6k,MullerLyer,-0.30447,3.0,MullerLyer_3.00000_-0.30447.png,A,68.0,375020.0,0.842,arrowdown,arrowdown,0
qjrzelgz6k,MullerLyer,0.08716,-9.0,MullerLyer_-9.0000_0.08716.png,A,69.0,376579.0,1.004,arrowup,arrowup,0
qjrzelgz6k,MullerLyer,0.18509,9.0,MullerLyer_9.00000_0.18509.png,A,70.0,378564.0,1.514,arrowup,arrowup,0
qjrzelgz6k,MullerLyer,0.30447,3.0,MullerLyer_3.00000_0.30447.png,A,71.0,381143.0,0.824,arrowup,arrowup,0
qjrzelgz6k,MullerLyer,0.18509,21.0,MullerLyer_21.0000_0.18509.png,A,72.0,383044.0,0.979,arrowdown,arrowup,1
qjrzelgz6k,MullerLyer,-0.08716,9.0,MullerLyer_9.00000_-0.08716.png,A,73.0,384860.0,1.97,arrowup,arrowdown,1
qjrzelgz6k,MullerLyer,-0.30447,27.0,MullerLyer_27.0000_-0.30447.png,A,74.0,387630.0,1.305,arrowdown,arrowdown,0
qjrzelgz6k,MullerLyer,0.45,21.0,MullerLyer_21.0000_0.45000.png,A,75.0,389879.0,1.415,arrowup,arrowup,0
qjrzelgz6k,MullerLyer,0.08716,-15.0,MullerLyer_-15.000_0.08716.png,A,76.0,392355.0,1.699,arrowup,arrowup,0
qjrzelgz6k,MullerLyer,-0.45,15.0,MullerLyer_15.0000_-0.4500.png,A,77.0,395133.0,0.649,arrowdown,arrowdown,0
qjrzelgz6k,MullerLyer,-0.08716,21.0,MullerLyer_21.0000_-0.08716.png,A,78.0,396807.0,1.44,arrowup,arrowdown,1
qjrzelgz6k,MullerLyer,0.08716,3.0,MullerLyer_3.00000_0.08716.png,A,79.0,399046.0,1.905,arrowup,arrowup,0
qjrzelgz6k,MullerLyer,0.18509,-27.0,MullerLyer_-27.000_0.18509.png,A,80.0,401902.0,0.72,arrowup,arrowup,0
qjrzelgz6k,Ebbinghaus,-0.20566,-1.35,Ebbinghaus_-1.3500_-0.20566.png,A,1.0,410027.0,1.403,arrowright,arrowright,0
qjrzelgz6k,Ebbinghaus,-0.3383,0.15,Ebbinghaus_0.15000_-0.3383.png,A,2.0,412520.0,0.903,arrowright,arrowright,0
qjrzelgz6k,Ebbinghaus,-0.3383,-0.75,Ebbinghaus_-0.7500_-0.3383.png,A,3.0,414046.0,0.808,arrowright,arrowright,0
qjrzelgz6k,Ebbinghaus,-0.09684,0.45,Ebbinghaus_0.45000_-0.09684.png,A,4.0,415537.0,1.078,arrowright,arrowright,0
qjrzelgz6k,Ebbinghaus,0.5,1.05,Ebbinghaus_1.05000_0.50000.png,A,5.0,417430.0,0.848,arrowleft,arrowleft,0
qjrzelgz6k,Ebbinghaus,0.3383,0.75,Ebbinghaus_0.75000_0.33830.png,A,6.0,419382.0,1.641,arrowleft,arrowleft,0
qjrzelgz6k,Ebbinghaus,-0.20566,0.15,Ebbinghaus_0.15000_-0.20566.png,A,7.0,422036.0,0.794,arrowright,arrowright,0
qjrzelgz6k,Ebbinghaus,0.3383,-1.35,Ebbinghaus_-1.3500_0.33830.png,A,8.0,423642.0,1.18,arrowleft,arrowleft,0
qjrzelgz6k,Ebbinghaus,-0.3383,0.45,Ebbinghaus_0.45000_-0.3383.png,A,9.0,425923.0,1.012,arrowright,arrowright,0
qjrzelgz6k,Ebbinghaus,0.3383,-1.05,Ebbinghaus_-1.0500_0.33830.png,A,10.0,427791.0,0.672,arrowleft,arrowleft,0
qjrzelgz6k,Ebbinghaus,-0.09684,-0.45,Ebbinghaus_-0.4500_-0.09684.png,A,11.0,429541.0,0.93,arrowright,arrowright,0
qjrzelgz6k,Ebbinghaus,0.3383,1.05,Ebbinghaus_1.05000_0.33830.png,A,12.0,431122.0,1.373,arrowleft,arrowleft,0
qjrzelgz6k,Ebbinghaus,0.5,-0.75,Ebbinghaus_-0.7500_0.50000.png,A,13.0,433317.0,0.722,arrowleft,arrowleft,0
qjrzelgz6k,Ebbinghaus,-0.3383,1.05,Ebbinghaus_1.05000_-0.3383.png,A,14.0,434907.0,1.315,arrowright,arrowright,0
qjrzelgz6k,Ebbinghaus,-0.3383,-1.35,Ebbinghaus_-1.3500_-0.3383.png,A,15.0,436963.0,0.854,arrowright,arrowright,0
qjrzelgz6k,Ebbinghaus,-0.3383,0.75,Ebbinghaus_0.75000_-0.3383.png,A,16.0,438434.0,1.213,arrowright,arrowright,0
qjrzelgz6k,Ebbinghaus,-0.20566,-0.15,Ebbinghaus_-0.1500_-0.20566.png,A,17.0,440431.0,1.623,arrowright,arrowright,0
qjrzelgz6k,Ebbinghaus,0.20566,-0.15,Ebbinghaus_-0.1500_0.20566.png,A,18.0,442712.0,0.99,arrowleft,arrowleft,0
qjrzelgz6k,Ebbinghaus,0.5,0.75,Ebbinghaus_0.75000_0.50000.png,A,19.0,444415.0,0.903,arrowleft,arrowleft,0
qjrzelgz6k,Ebbinghaus,-0.5,-1.35,Ebbinghaus_-1.3500_-0.5000.png,A,20.0,446062.0,0.696,arrowright,arrowright,0
qjrzelgz6k,Ebbinghaus,0.09684,0.15,Ebbinghaus_0.15000_0.09684.png,A,21.0,447636.0,1.596,arrowleft,arrowleft,0
qjrzelgz6k,Ebbinghaus,-0.09684,0.75,Ebbinghaus_0.75000_-0.09684.png,A,22.0,450026.0,1.652,arrowleft,arrowright,1
qjrzelgz6k,Ebbinghaus,-0.09684,-1.35,Ebbinghaus_-1.3500_-0.09684.png,A,23.0,452619.0,0.964,arrowright,arrowright,0
qjrzelgz6k,Ebbinghaus,-0.09684,1.05,Ebbinghaus_1.05000_-0.09684.png,A,24.0,454431.0,0.792,arrowleft,arrowright,1
qjrzelgz6k,Ebbinghaus,0.5,-0.15,Ebbinghaus_-0.1500_0.50000.png,A,25.0,455999.0,0.632,arrowleft,arrowleft,0
qjrzelgz6k,Ebbinghaus,0.20566,-1.35,Ebbinghaus_-1.3500_0.20566.png,A,26.0,457418.0,0.741,arrowleft,arrowleft,0
qjrzelgz6k,Ebbinghaus,-0.20566,1.05,Ebbinghaus_1.05000_-0.20566.png,A,27.0,458796.0,1.171,arrowleft,arrowright,1
qjrzelgz6k,Ebbinghaus,-0.5,0.75,Ebbinghaus_0.75000_-0.5000.png,A,28.0,460900.0,1.29,arrowright,arrowright,0
qjrzelgz6k,Ebbinghaus,0.20566,0.45,Ebbinghaus_0.45000_0.20566.png,A,29.0,463154.0,0.996,arrowleft,arrowleft,0
qjrzelgz6k,Ebbinghaus,0.5,1.35,Ebbinghaus_1.35000_0.50000.png,A,30.0,464916.0,1.003,arrowleft,arrowleft,0
qjrzelgz6k,Ebbinghaus,-0.5,-0.45,Ebbinghaus_-0.4500_-0.5000.png,A,31.0,466827.0,0.627,arrowright,arrowright,0
qjrzelgz6k,Ebbinghaus,0.20566,0.15,Ebbinghaus_0.15000_0.20566.png,A,32.0,468308.0,0.883,arrowleft,arrowleft,0
qjrzelgz6k,Ebbinghaus,0.09684,-1.05,Ebbinghaus_-1.0500_0.09684.png,A,33.0,470193.0,0.646,arrowleft,arrowleft,0
qjrzelgz6k,Ebbinghaus,-0.09684,-0.15,Ebbinghaus_-0.1500_-0.09684.png,A,34.0,471938.0,1.405,arrowright,arrowright,0
qjrzelgz6k,Ebbinghaus,-0.5,-0.15,Ebbinghaus_-0.1500_-0.5000.png,A,35.0,474017.0,0.725,arrowright,arrowright,0
qjrzelgz6k,Ebbinghaus,0.20566,1.35,Ebbinghaus_1.35000_0.20566.png,A,36.0,475635.0,1.027,arrowright,arrowleft,1
qjrzelgz6k,Ebbinghaus,-0.5,-0.75,Ebbinghaus_-0.7500_-0.5000.png,A,37.0,477747.0,0.635,arrowright,arrowright,0
qjrzelgz6k,Ebbinghaus,0.5,-1.05,Ebbinghaus_-1.0500_0.50000.png,A,38.0,479349.0,0.745,arrowleft,arrowleft,0
qjrzelgz6k,Ebbinghaus,-0.20566,0.45,Ebbinghaus_0.45000_-0.20566.png,A,39.0,480993.0,1.246,arrowright,arrowright,0
qjrzelgz6k,Ebbinghaus,-0.20566,0.75,Ebbinghaus_0.75000_-0.20566.png,A,40.0,482910.0,0.992,arrowright,arrowright,0
qjrzelgz6k,Ebbinghaus,0.20566,1.05,Ebbinghaus_1.05000_0.20566.png,A,41.0,484600.0,1.975,arrowright,arrowleft,1
qjrzelgz6k,Ebbinghaus,0.20566,-0.45,Ebbinghaus_-0.4500_0.20566.png,A,42.0,487284.0,0.922,arrowleft,arrowleft,0
qjrzelgz6k,Ebbinghaus,0.3383,0.45,Ebbinghaus_0.45000_0.33830.png,A,43.0,489042.0,0.861,arrowleft,arrowleft,0
qjrzelgz6k,Ebbinghaus,-0.20566,-0.45,Ebbinghaus_-0.4500_-0.20566.png,A,44.0,490943.0,0.648,arrowright,arrowright,0
qjrzelgz6k,Ebbinghaus,0.5,0.45,Ebbinghaus_0.45000_0.50000.png,A,45.0,492333.0,0.825,arrowleft,arrowleft,0
qjrzelgz6k,Ebbinghaus,-0.5,0.15,Ebbinghaus_0.15000_-0.5000.png,A,46.0,493858.0,0.653,arrowright,arrowright,0
qjrzelgz6k,Ebbinghaus,-0.09684,0.15,Ebbinghaus_0.15000_-0.09684.png,A,47.0,495463.0,1.999,arrowright,arrowright,0
qjrzelgz6k,Ebbinghaus,0.09684,1.05,Ebbinghaus_1.05000_0.09684.png,A,48.0,498368.0,1.039,arrowright,arrowleft,1
qjrzelgz6k,Ebbinghaus,0.3383,1.35,Ebbinghaus_1.35000_0.33830.png,A,49.0,500209.0,1.813,arrowleft,arrowleft,0
qjrzelgz6k,Ebbinghaus,0.09684,-0.45,Ebbinghaus_-0.4500_0.09684.png,A,50.0,503032.0,0.847,arrowleft,arrowleft,0
qjrzelgz6k,Ebbinghaus,0.5,-1.35,Ebbinghaus_-1.3500_0.50000.png,A,51.0,504683.0,0.635,arrowleft,arrowleft,0
qjrzelgz6k,Ebbinghaus,0.5,-0.45,Ebbinghaus_-0.4500_0.50000.png,A,52.0,506211.0,0.667,arrowleft,arrowleft,0
qjrzelgz6k,Ebbinghaus,-0.5,0.45,Ebbinghaus_0.45000_-0.5000.png,A,53.0,507704.0,0.687,arrowright,arrowright,0
qjrzelgz6k,Ebbinghaus,0.09684,-1.35,Ebbinghaus_-1.3500_0.09684.png,A,54.0,509488.0,0.582,arrowleft,arrowleft,0
qjrzelgz6k,Ebbinghaus,0.20566,0.75,Ebbinghaus_0.75000_0.20566.png,A,55.0,510784.0,1.703,arrowleft,arrowleft,0
qjrzelgz6k,Ebbinghaus,-0.3383,-0.45,Ebbinghaus_-0.4500_-0.3383.png,A,56.0,513579.0,0.644,arrowright,arrowright,0
qjrzelgz6k,Ebbinghaus,0.09684,0.45,Ebbinghaus_0.45000_0.09684.png,A,57.0,515139.0,1.683,arrowright,arrowleft,1
qjrzelgz6k,Ebbinghaus,-0.20566,-0.75,Ebbinghaus_-0.7500_-0.20566.png,A,58.0,517521.0,1.493,arrowright,arrowright,0
qjrzelgz6k,Ebbinghaus,0.3383,0.15,Ebbinghaus_0.15000_0.33830.png,A,59.0,519773.0,0.881,arrowleft,arrowleft,0
qjrzelgz6k,Ebbinghaus,-0.5,1.35,Ebbinghaus_1.35000_-0.5000.png,A,60.0,521535.0,0.824,arrowright,arrowright,0
qjrzelgz6k,Ebbinghaus,0.09684,1.35,Ebbinghaus_1.35000_0.09684.png,A,61.0,523086.0,0.937,arrowright,arrowleft,1
qjrzelgz6k,Ebbinghaus,0.09684,-0.75,Ebbinghaus_-0.7500_0.09684.png,A,62.0,524701.0,0.81,arrowleft,arrowleft,0
qjrzelgz6k,Ebbinghaus,-0.09684,-0.75,Ebbinghaus_-0.7500_-0.09684.png,A,63.0,526284.0,1.051,arrowright,arrowright,0
qjrzelgz6k,Ebbinghaus,-0.09684,-1.05,Ebbinghaus_-1.0500_-0.09684.png,A,64.0,528341.0,0.794,arrowright,arrowright,0
qjrzelgz6k,Ebbinghaus,-0.09684,1.35,Ebbinghaus_1.35000_-0.09684.png,A,65.0,530188.0,0.842,arrowleft,arrowright,1
qjrzelgz6k,Ebbinghaus,-0.3383,-0.15,Ebbinghaus_-0.1500_-0.3383.png,A,66.0,531951.0,0.591,arrowright,arrowright,0
qjrzelgz6k,Ebbinghaus,-0.5,-1.05,Ebbinghaus_-1.0500_-0.5000.png,A,67.0,533524.0,0.531,arrowright,arrowright,0
qjrzelgz6k,Ebbinghaus,0.5,0.15,Ebbinghaus_0.15000_0.50000.png,A,68.0,534987.0,0.628,arrowleft,arrowleft,0
qjrzelgz6k,Ebbinghaus,-0.5,1.05,Ebbinghaus_1.05000_-0.5000.png,A,69.0,536464.0,0.511,arrowright,arrowright,0
qjrzelgz6k,Ebbinghaus,0.3383,-0.75,Ebbinghaus_-0.7500_0.33830.png,A,70.0,537976.0,0.614,arrowleft,arrowleft,0
qjrzelgz6k,Ebbinghaus,-0.20566,1.35,Ebbinghaus_1.35000_-0.20566.png,A,71.0,539673.0,0.757,arrowleft,arrowright,1
qjrzelgz6k,Ebbinghaus,-0.3383,1.35,Ebbinghaus_1.35000_-0.3383.png,A,72.0,541401.0,1.294,arrowleft,arrowright,1
qjrzelgz6k,Ebbinghaus,0.09684,0.75,Ebbinghaus_0.75000_0.09684.png,A,73.0,543654.0,1.576,arrowright,arrowleft,1
qjrzelgz6k,Ebbinghaus,-0.20566,-1.05,Ebbinghaus_-1.0500_-0.20566.png,A,74.0,546105.0,0.861,arrowright,arrowright,0
qjrzelgz6k,Ebbinghaus,0.20566,-0.75,Ebbinghaus_-0.7500_0.20566.png,A,75.0,547691.0,1.123,arrowleft,arrowleft,0
qjrzelgz6k,Ebbinghaus,0.09684,-0.15,Ebbinghaus_-0.1500_0.09684.png,A,76.0,549586.0,2.62,arrowleft,arrowleft,0
qjrzelgz6k,Ebbinghaus,-0.3383,-1.05,Ebbinghaus_-1.0500_-0.3383.png,A,77.0,552826.0,1.276,arrowright,arrowright,0
qjrzelgz6k,Ebbinghaus,0.20566,-1.05,Ebbinghaus_-1.0500_0.20566.png,A,78.0,555150.0,0.919,arrowleft,arrowleft,0
qjrzelgz6k,Ebbinghaus,0.3383,-0.45,Ebbinghaus_-0.4500_0.33830.png,A,79.0,556950.0,0.632,arrowleft,arrowleft,0
qjrzelgz6k,Ebbinghaus,0.3383,-0.15,Ebbinghaus_-0.1500_0.33830.png,A,80.0,558533.0,0.592,arrowleft,arrowleft,0
qjrzelgz6k,VerticalHorizontal,0.12339,22.5,VerticalHorizontal_22.5000_0.12339.png,A,1.0,565071.0,1.686,arrowleft,arrowleft,0
qjrzelgz6k,VerticalHorizontal,0.3,22.5,VerticalHorizontal_22.5000_0.30000.png,A,2.0,567598.0,0.752,arrowleft,arrowleft,0
qjrzelgz6k,VerticalHorizontal,0.0581,22.5,VerticalHorizontal_22.5000_0.05810.png,A,3.0,569246.0,0.896,arrowleft,arrowleft,0
qjrzelgz6k,VerticalHorizontal,-0.3,13.5,VerticalHorizontal_13.5000_-0.3000.png,A,4.0,571049.0,0.548,arrowright,arrowright,0
qjrzelgz6k,VerticalHorizontal,-0.0581,13.5,VerticalHorizontal_13.5000_-0.0581.png,A,5.0,572448.0,1.037,arrowleft,arrowright,1
qjrzelgz6k,VerticalHorizontal,0.12339,13.5,VerticalHorizontal_13.5000_0.12339.png,A,6.0,574415.0,0.806,arrowleft,arrowleft,0
qjrzelgz6k,VerticalHorizontal,0.0581,13.5,VerticalHorizontal_13.5000_0.05810.png,A,7.0,576178.0,1.107,arrowleft,arrowleft,0
qjrzelgz6k,VerticalHorizontal,0.12339,4.5,VerticalHorizontal_4.50000_0.12339.png,A,8.0,578125.0,1.161,arrowleft,arrowleft,0
qjrzelgz6k,VerticalHorizontal,0.12339,-31.5,VerticalHorizontal_-31.500_0.12339.png,A,9.0,580103.0,0.774,arrowleft,arrowleft,0
qjrzelgz6k,VerticalHorizontal,-0.12339,4.5,VerticalHorizontal_4.50000_-0.12339.png,A,10.0,581869.0,1.001,arrowright,arrowright,0
qjrzelgz6k,VerticalHorizontal,-0.12339,-31.5,VerticalHorizontal_-31.500_-0.12339.png,A,11.0,583760.0,0.798,arrowright,arrowright,0
qjrzelgz6k,VerticalHorizontal,0.0581,-4.5,VerticalHorizontal_-4.5000_0.05810.png,A,12.0,585461.0,0.968,arrowleft,arrowleft,0
qjrzelgz6k,VerticalHorizontal,0.3,-4.5,VerticalHorizontal_-4.5000_0.30000.png,A,13.0,587358.0,0.631,arrowleft,arrowleft,0
qjrzelgz6k,VerticalHorizontal,-0.3,-31.5,VerticalHorizontal_-31.500_-0.3000.png,A,14.0,588849.0,0.549,arrowright,arrowright,0
qjrzelgz6k,VerticalHorizontal,-0.0581,31.5,VerticalHorizontal_31.5000_-0.0581.png,A,15.0,590401.0,0.654,arrowleft,arrowright,1
qjrzelgz6k,VerticalHorizontal,-0.0581,22.5,VerticalHorizontal_22.5000_-0.0581.png,A,16.0,591836.0,0.906,arrowleft,arrowright,1
qjrzelgz6k,VerticalHorizontal,0.20298,-31.5,VerticalHorizontal_-31.500_0.20298.png,A,17.0,593729.0,0.636,arrowleft,arrowleft,0
qjrzelgz6k,VerticalHorizontal,-0.20298,-13.5,VerticalHorizontal_-13.500_-0.20298.png,A,18.0,595111.0,0.8,arrowright,arrowright,0
qjrzelgz6k,VerticalHorizontal,-0.12339,-40.5,VerticalHorizontal_-40.500_-0.12339.png,A,19.0,596959.0,0.567,arrowright,arrowright,0
qjrzelgz6k,VerticalHorizontal,-0.12339,-4.5,VerticalHorizontal_-4.5000_-0.12339.png,A,20.0,598192.0,0.75,arrowright,arrowright,0
qjrzelgz6k,VerticalHorizontal,0.3,-40.5,VerticalHorizontal_-40.500_0.30000.png,A,21.0,599806.0,0.552,arrowleft,arrowleft,0
qjrzelgz6k,VerticalHorizontal,0.20298,-22.5,VerticalHorizontal_-22.500_0.20298.png,A,22.0,601277.0,0.537,arrowleft,arrowleft,0
qjrzelgz6k,VerticalHorizontal,-0.0581,-22.5,VerticalHorizontal_-22.500_-0.0581.png,A,23.0,602759.0,0.486,arrowright,arrowright,0
qjrzelgz6k,VerticalHorizontal,0.12339,-13.5,VerticalHorizontal_-13.500_0.12339.png,A,24.0,604104.0,0.462,arrowleft,arrowleft,0
qjrzelgz6k,VerticalHorizontal,-0.12339,40.5,VerticalHorizontal_40.5000_-0.12339.png,A,25.0,605183.0,0.671,arrowleft,arrowright,1
qjrzelgz6k,VerticalHorizontal,-0.3,-4.5,VerticalHorizontal_-4.5000_-0.3000.png,A,26.0,606645.0,0.545,arrowright,arrowright,0
qjrzelgz6k,VerticalHorizontal,0.0581,31.5,VerticalHorizontal_31.5000_0.05810.png,A,27.0,607887.0,0.702,arrowright,arrowleft,1
qjrzelgz6k,VerticalHorizontal,0.20298,13.5,VerticalHorizontal_13.5000_0.20298.png,A,28.0,609488.0,0.653,arrowleft,arrowleft,0
qjrzelgz6k,VerticalHorizontal,-0.20298,-31.5,VerticalHorizontal_-31.500_-0.20298.png,A,29.0,611080.0,0.518,arrowright,arrowright,0
qjrzelgz6k,VerticalHorizontal,-0.0581,4.5,VerticalHorizontal_4.50000_-0.0581.png,A,30.0,612227.0,0.748,arrowleft,arrowright,1
qjrzelgz6k,VerticalHorizontal,0.20298,22.5,VerticalHorizontal_22.5000_0.20298.png,A,31.0,613892.0,0.786,arrowleft,arrowleft,0
qjrzelgz6k,VerticalHorizontal,0.3,-22.5,VerticalHorizontal_-22.500_0.30000.png,A,32.0,615496.0,0.574,arrowleft,arrowleft,0
qjrzelgz6k,VerticalHorizontal,0.3,13.5,VerticalHorizontal_13.5000_0.30000.png,A,33.0,617163.0,0.652,arrowleft,arrowleft,0
qjrzelgz6k,VerticalHorizontal,0.20298,-40.5,VerticalHorizontal_-40.500_0.20298.png,A,34.0,618765.0,0.689,arrowleft,arrowleft,0
qjrzelgz6k,VerticalHorizontal,0.0581,-31.5,VerticalHorizontal_-31.500_0.05810.png,A,35.0,620255.0,0.727,arrowleft,arrowleft,0
qjrzelgz6k,VerticalHorizontal,0.3,4.5,VerticalHorizontal_4.50000_0.30000.png,A,36.0,621964.0,0.618,arrowleft,arrowleft,0
qjrzelgz6k,VerticalHorizontal,-0.20298,4.5,VerticalHorizontal_4.50000_-0.20298.png,A,37.0,623354.0,0.661,arrowright,arrowright,0
qjrzelgz6k,VerticalHorizontal,-0.12339,31.5,VerticalHorizontal_31.5000_-0.12339.png,A,38.0,625026.0,1.173,arrowleft,arrowright,1
qjrzelgz6k,VerticalHorizontal,-0.12339,-22.5,VerticalHorizontal_-22.500_-0.12339.png,A,39.0,626974.0,0.632,arrowright,arrowright,0
qjrzelgz6k,VerticalHorizontal,-0.20298,22.5,VerticalHorizontal_22.5000_-0.20298.png,A,40.0,628232.0,1.023,arrowleft,arrowright,1
qjrzelgz6k,VerticalHorizontal,0.20298,31.5,VerticalHorizontal_31.5000_0.20298.png,A,41.0,630292.0,1.034,arrowleft,arrowleft,0
qjrzelgz6k,VerticalHorizontal,-0.20298,13.5,VerticalHorizontal_13.5000_-0.20298.png,A,42.0,632020.0,0.947,arrowleft,arrowright,1
qjrzelgz6k,VerticalHorizontal,0.3,-13.5,VerticalHorizontal_-13.500_0.30000.png,A,43.0,633826.0,0.604,arrowleft,arrowleft,0
qjrzelgz6k,VerticalHorizontal,0.20298,4.5,VerticalHorizontal_4.50000_0.20298.png,A,44.0,635323.0,0.755,arrowright,arrowleft,1
qjrzelgz6k,VerticalHorizontal,-0.0581,-13.5,VerticalHorizontal_-13.500_-0.0581.png,A,45.0,636689.0,1.07,arrowright,arrowright,0
qjrzelgz6k,VerticalHorizontal,0.3,40.5,VerticalHorizontal_40.5000_0.30000.png,A,46.0,638555.0,1.156,arrowright,arrowleft,1
qjrzelgz6k,VerticalHorizontal,0.12339,31.5,VerticalHorizontal_31.5000_0.12339.png,A,47.0,640526.0,1.168,arrowleft,arrowleft,0
qjrzelgz6k,VerticalHorizontal,-0.3,-40.5,VerticalHorizontal_-40.500_-0.3000.png,A,48.0,642569.0,0.581,arrowright,arrowright,0
qjrzelgz6k,VerticalHorizontal,0.3,-31.5,VerticalHorizontal_-31.500_0.30000.png,A,49.0,644103.0,0.599,arrowleft,arrowleft,0
qjrzelgz6k,VerticalHorizontal,-0.20298,-40.5,VerticalHorizontal_-40.500_-0.20298.png,A,50.0,645677.0,0.57,arrowright,arrowright,0
qjrzelgz6k,VerticalHorizontal,-0.3,-22.5,VerticalHorizontal_-22.500_-0.3000.png,A,51.0,647325.0,0.635,arrowright,arrowright,0
qjrzelgz6k,VerticalHorizontal,-0.20298,31.5,VerticalHorizontal_31.5000_-0.20298.png,A,52.0,648822.0,1.137,arrowleft,arrowright,1
qjrzelgz6k,VerticalHorizontal,-0.20298,-4.5,VerticalHorizontal_-4.5000_-0.20298.png,A,53.0,650821.0,0.721,arrowright,arrowright,0
qjrzelgz6k,VerticalHorizontal,-0.12339,13.5,VerticalHorizontal_13.5000_-0.12339.png,A,54.0,652637.0,0.585,arrowleft,arrowright,1
qjrzelgz6k,VerticalHorizontal,-0.3,22.5,VerticalHorizontal_22.5000_-0.3000.png,A,55.0,654167.0,1.231,arrowright,arrowright,0
qjrzelgz6k,VerticalHorizontal,-0.0581,-40.5,VerticalHorizontal_-40.500_-0.0581.png,A,56.0,656404.0,0.65,arrowright,arrowright,0
qjrzelgz6k,VerticalHorizontal,-0.3,31.5,VerticalHorizontal_31.5000_-0.3000.png,A,57.0,657866.0,1.204,arrowright,arrowright,0
qjrzelgz6k,VerticalHorizontal,0.0581,-22.5,VerticalHorizontal_-22.500_0.05810.png,A,58.0,660129.0,0.693,arrowleft,arrowleft,0
qjrzelgz6k,VerticalHorizontal,-0.3,4.5,VerticalHorizontal_4.50000_-0.3000.png,A,59.0,661743.0,1.303,arrowright,arrowright,0
qjrzelgz6k,VerticalHorizontal,-0.0581,-31.5,VerticalHorizontal_-31.500_-0.0581.png,A,60.0,664131.0,0.754,arrowright,arrowright,0
qjrzelgz6k,VerticalHorizontal,-0.20298,-22.5,VerticalHorizontal_-22.500_-0.20298.png,A,61.0,665603.0,0.555,arrowright,arrowright,0
qjrzelgz6k,VerticalHorizontal,-0.12339,-13.5,VerticalHorizontal_-13.500_-0.12339.png,A,62.0,666797.0,0.785,arrowright,arrowright,0
qjrzelgz6k,VerticalHorizontal,0.0581,40.5,VerticalHorizontal_40.5000_0.05810.png,A,63.0,668648.0,0.47,arrowright,arrowleft,1
qjrzelgz6k,VerticalHorizontal,-0.12339,22.5,VerticalHorizontal_22.5000_-0.12339.png,A,64.0,669758.0,0.857,arrowleft,arrowright,1
qjrzelgz6k,VerticalHorizontal,0.0581,4.5,VerticalHorizontal_4.50000_0.05810.png,A,65.0,671713.0,0.613,arrowright,arrowleft,1
qjrzelgz6k,VerticalHorizontal,0.20298,40.5,VerticalHorizontal_40.5000_0.20298.png,A,66.0,673104.0,1.519,arrowright,arrowleft,1
qjrzelgz6k,VerticalHorizontal,0.20298,-13.5,VerticalHorizontal_-13.500_0.20298.png,A,67.0,675521.0,0.789,arrowleft,arrowleft,0
qjrzelgz6k,VerticalHorizontal,-0.0581,-4.5,VerticalHorizontal_-4.5000_-0.0581.png,A,68.0,677317.0,0.657,arrowright,arrowright,0
qjrzelgz6k,VerticalHorizontal,0.12339,-4.5,VerticalHorizontal_-4.5000_0.12339.png,A,69.0,678851.0,0.771,arrowleft,arrowleft,0
qjrzelgz6k,VerticalHorizontal,0.12339,-40.5,VerticalHorizontal_-40.500_0.12339.png,A,70.0,680294.0,0.824,arrowleft,arrowleft,0
qjrzelgz6k,VerticalHorizontal,-0.20298,40.5,VerticalHorizontal_40.5000_-0.20298.png,A,71.0,681976.0,1.693,arrowright,arrowright,0
qjrzelgz6k,VerticalHorizontal,-0.0581,40.5,VerticalHorizontal_40.5000_-0.0581.png,A,72.0,684415.0,1.119,arrowleft,arrowright,1
qjrzelgz6k,VerticalHorizontal,0.0581,-40.5,VerticalHorizontal_-40.500_0.05810.png,A,73.0,686203.0,0.972,arrowleft,arrowleft,0
qjrzelgz6k,VerticalHorizontal,0.20298,-4.5,VerticalHorizontal_-4.5000_0.20298.png,A,74.0,688277.0,1.129,arrowleft,arrowleft,0
qjrzelgz6k,VerticalHorizontal,0.0581,-13.5,VerticalHorizontal_-13.500_0.05810.png,A,75.0,690044.0,0.89,arrowleft,arrowleft,0
qjrzelgz6k,VerticalHorizontal,0.12339,-22.5,VerticalHorizontal_-22.500_0.12339.png,A,76.0,691677.0,0.857,arrowleft,arrowleft,0
qjrzelgz6k,VerticalHorizontal,0.3,31.5,VerticalHorizontal_31.5000_0.30000.png,A,77.0,693355.0,1.052,arrowleft,arrowleft,0
qjrzelgz6k,VerticalHorizontal,-0.3,40.5,VerticalHorizontal_40.5000_-0.3000.png,A,78.0,695251.0,1.212,arrowright,arrowright,0
qjrzelgz6k,VerticalHorizontal,0.12339,40.5,VerticalHorizontal_40.5000_0.12339.png,A,79.0,697256.0,1.47,arrowright,arrowleft,1
qjrzelgz6k,VerticalHorizontal,-0.3,-13.5,VerticalHorizontal_-13.500_-0.3000.png,A,80.0,699453.0,0.633,arrowright,arrowright,0
qjrzelgz6k,MullerLyer,-0.37364,-12.0,MullerLyer_-12.000_-0.37364.png,B,1.0,786454.0,0.881,arrowdown,arrowdown,0
qjrzelgz6k,MullerLyer,-0.1337,6.0,MullerLyer_6.00000_-0.1337.png,B,2.0,788145.0,1.101,arrowdown,arrowdown,0
qjrzelgz6k,MullerLyer,0.37364,12.0,MullerLyer_12.0000_0.37364.png,B,3.0,790228.0,0.914,arrowup,arrowup,0
qjrzelgz6k,MullerLyer,0.24183,-24.0,MullerLyer_-24.000_0.24183.png,B,4.0,791785.0,1.022,arrowup,arrowup,0
qjrzelgz6k,MullerLyer,0.37364,-24.0,MullerLyer_-24.000_0.37364.png,B,5.0,793478.0,0.751,arrowup,arrowup,0
qjrzelgz6k,MullerLyer,-0.1337,30.0,MullerLyer_30.0000_-0.1337.png,B,6.0,794853.0,1.849,arrowdown,arrowdown,0
qjrzelgz6k,MullerLyer,-0.045,-30.0,MullerLyer_-30.000_-0.0450.png,B,7.0,797620.0,0.81,arrowdown,arrowdown,0
qjrzelgz6k,MullerLyer,-0.24183,-18.0,MullerLyer_-18.000_-0.24183.png,B,8.0,799163.0,0.659,arrowdown,arrowdown,0
qjrzelgz6k,MullerLyer,-0.24183,12.0,MullerLyer_12.0000_-0.24183.png,B,9.0,800792.0,1.022,arrowdown,arrowdown,0
qjrzelgz6k,MullerLyer,0.045,-6.0,MullerLyer_-6.0000_0.04500.png,B,10.0,802616.0,1.206,arrowup,arrowup,0
qjrzelgz6k,MullerLyer,-0.37364,18.0,MullerLyer_18.0000_-0.37364.png,B,11.0,804612.0,0.641,arrowdown,arrowdown,0
qjrzelgz6k,MullerLyer,-0.24183,24.0,MullerLyer_24.0000_-0.24183.png,B,12.0,806210.0,1.011,arrowdown,arrowdown,0
qjrzelgz6k,MullerLyer,0.045,12.0,MullerLyer_12.0000_0.04500.png,B,13.0,808163.0,0.675,arrowdown,arrowup,1
qjrzelgz6k,MullerLyer,-0.045,12.0,MullerLyer_12.0000_-0.0450.png,B,14.0,809918.0,1.081,arrowup,arrowdown,1
qjrzelgz6k,MullerLyer,0.045,-12.0,MullerLyer_-12.000_0.04500.png,B,15.0,812109.0,0.977,arrowup,arrowup,0
qjrzelgz6k,MullerLyer,0.24183,-30.0,MullerLyer_-30.000_0.24183.png,B,16.0,813814.0,0.631,arrowup,arrowup,0
qjrzelgz6k,MullerLyer,-0.1337,-18.0,MullerLyer_-18.000_-0.1337.png,B,17.0,815261.0,0.617,arrowdown,arrowdown,0
qjrzelgz6k,MullerLyer,0.24183,-12.0,MullerLyer_-12.000_0.24183.png,B,18.0,816781.0,0.648,arrowup,arrowup,0
qjrzelgz6k,MullerLyer,0.24183,24.0,MullerLyer_24.0000_0.24183.png,B,19.0,818277.0,1.241,arrowup,arrowup,0
qjrzelgz6k,MullerLyer,-0.1337,18.0,MullerLyer_18.0000_-0.1337.png,B,20.0,820133.0,1.185,arrowup,arrowdown,1
qjrzelgz6k,MullerLyer,0.1337,18.0,MullerLyer_18.0000_0.13370.png,B,21.0,822331.0,1.603,arrowdown,arrowup,1
qjrzelgz6k,MullerLyer,0.37364,24.0,MullerLyer_24.0000_0.37364.png,B,22.0,824612.0,1.098,arrowup,arrowup,0
qjrzelgz6k,MullerLyer,-0.24183,6.0,MullerLyer_6.00000_-0.24183.png,B,23.0,826614.0,0.767,arrowdown,arrowdown,0
qjrzelgz6k,MullerLyer,0.24183,6.0,MullerLyer_6.00000_0.24183.png,B,24.0,828475.0,0.651,arrowup,arrowup,0
qjrzelgz6k,MullerLyer,0.37364,-6.0,MullerLyer_-6.0000_0.37364.png,B,25.0,830191.0,0.575,arrowup,arrowup,0
qjrzelgz6k,MullerLyer,-0.37364,6.0,MullerLyer_6.00000_-0.37364.png,B,26.0,831777.0,0.693,arrowdown,arrowdown,0
qjrzelgz6k,MullerLyer,-0.24183,-6.0,MullerLyer_-6.0000_-0.24183.png,B,27.0,833583.0,0.631,arrowdown,arrowdown,0
qjrzelgz6k,MullerLyer,-0.1337,-6.0,MullerLyer_-6.0000_-0.1337.png,B,28.0,835051.0,0.73,arrowdown,arrowdown,0
qjrzelgz6k,MullerLyer,0.1337,12.0,MullerLyer_12.0000_0.13370.png,B,29.0,836683.0,1.611,arrowdown,arrowup,1
qjrzelgz6k,MullerLyer,0.045,-24.0,MullerLyer_-24.000_0.04500.png,B,30.0,839287.0,0.607,arrowup,arrowup,0
qjrzelgz6k,MullerLyer,-0.1337,-24.0,MullerLyer_-24.000_-0.1337.png,B,31.0,840969.0,0.581,arrowdown,arrowdown,0
qjrzelgz6k,MullerLyer,-0.045,30.0,MullerLyer_30.0000_-0.0450.png,B,32.0,842522.0,0.931,arrowup,arrowdown,1
qjrzelgz6k,MullerLyer,0.37364,30.0,MullerLyer_30.0000_0.37364.png,B,33.0,844415.0,0.99,arrowup,arrowup,0
qjrzelgz6k,MullerLyer,-0.37364,12.0,MullerLyer_12.0000_-0.37364.png,B,34.0,846128.0,0.558,arrowdown,arrowdown,0
qjrzelgz6k,MullerLyer,-0.045,18.0,MullerLyer_18.0000_-0.0450.png,B,35.0,847767.0,1.158,arrowup,arrowdown,1
qjrzelgz6k,MullerLyer,0.1337,-24.0,MullerLyer_-24.000_0.13370.png,B,36.0,849636.0,0.881,arrowup,arrowup,0
qjrzelgz6k,MullerLyer,0.24183,30.0,MullerLyer_30.0000_0.24183.png,B,37.0,851229.0,1.496,arrowdown,arrowup,1
qjrzelgz6k,MullerLyer,0.045,-30.0,MullerLyer_-30.000_0.04500.png,B,38.0,853487.0,0.768,arrowup,arrowup,0
qjrzelgz6k,MullerLyer,0.1337,24.0,MullerLyer_24.0000_0.13370.png,B,39.0,854884.0,0.666,arrowdown,arrowup,1
qjrzelgz6k,MullerLyer,-0.37364,-6.0,MullerLyer_-6.0000_-0.37364.png,B,40.0,856293.0,0.577,arrowdown,arrowdown,0
qjrzelgz6k,MullerLyer,0.045,-18.0,MullerLyer_-18.000_0.04500.png,B,41.0,857878.0,0.657,arrowup,arrowup,0
qjrzelgz6k,MullerLyer,0.24183,18.0,MullerLyer_18.0000_0.24183.png,B,42.0,859450.0,0.844,arrowup,arrowup,0
qjrzelgz6k,MullerLyer,0.24183,-18.0,MullerLyer_-18.000_0.24183.png,B,43.0,860917.0,0.617,arrowup,arrowup,0
qjrzelgz6k,MullerLyer,-0.045,-18.0,MullerLyer_-18.000_-0.0450.png,B,44.0,862513.0,0.685,arrowdown,arrowdown,0
qjrzelgz6k,MullerLyer,0.24183,-6.0,MullerLyer_-6.0000_0.24183.png,B,45.0,864054.0,0.655,arrowup,arrowup,0
qjrzelgz6k,MullerLyer,-0.1337,-30.0,MullerLyer_-30.000_-0.1337.png,B,46.0,865495.0,0.551,arrowdown,arrowdown,0
qjrzelgz6k,MullerLyer,-0.1337,12.0,MullerLyer_12.0000_-0.1337.png,B,47.0,866795.0,0.946,arrowdown,arrowdown,0
qjrzelgz6k,MullerLyer,0.24183,12.0,MullerLyer_12.0000_0.24183.png,B,48.0,868778.0,0.748,arrowup,arrowup,0
qjrzelgz6k,MullerLyer,-0.37364,-24.0,MullerLyer_-24.000_-0.37364.png,B,49.0,870445.0,0.561,arrowdown,arrowdown,0
qjrzelgz6k,MullerLyer,0.045,24.0,MullerLyer_24.0000_0.04500.png,B,50.0,871654.0,1.376,arrowdown,arrowup,1
qjrzelgz6k,MullerLyer,-0.24183,-30.0,MullerLyer_-30.000_-0.24183.png,B,51.0,874087.0,0.591,arrowdown,arrowdown,0
qjrzelgz6k,MullerLyer,0.1337,-6.0,MullerLyer_-6.0000_0.13370.png,B,52.0,875299.0,0.731,arrowup,arrowup,0
qjrzelgz6k,MullerLyer,0.1337,-18.0,MullerLyer_-18.000_0.13370.png,B,53.0,876795.0,0.635,arrowup,arrowup,0
qjrzelgz6k,MullerLyer,0.1337,-12.0,MullerLyer_-12.000_0.13370.png,B,54.0,878153.0,0.629,arrowup,arrowup,0
qjrzelgz6k,MullerLyer,0.045,6.0,MullerLyer_6.00000_0.04500.png,B,55.0,879458.0,1.716,arrowup,arrowup,0
qjrzelgz6k,MullerLyer,0.37364,6.0,MullerLyer_6.00000_0.37364.png,B,56.0,881972.0,0.586,arrowup,arrowup,0
qjrzelgz6k,MullerLyer,-0.045,6.0,MullerLyer_6.00000_-0.0450.png,B,57.0,883208.0,1.926,arrowdown,arrowdown,0
qjrzelgz6k,MullerLyer,-0.24183,18.0,MullerLyer_18.0000_-0.24183.png,B,58.0,885748.0,0.89,arrowdown,arrowdown,0
qjrzelgz6k,MullerLyer,-0.045,-6.0,MullerLyer_-6.0000_-0.0450.png,B,59.0,887549.0,1.241,arrowdown,arrowdown,0
qjrzelgz6k,MullerLyer,-0.37364,-18.0,MullerLyer_-18.000_-0.37364.png,B,60.0,889464.0,0.645,arrowdown,arrowdown,0
qjrzelgz6k,MullerLyer,-0.37364,-30.0,MullerLyer_-30.000_-0.37364.png,B,61.0,890867.0,0.595,arrowdown,arrowdown,0
qjrzelgz6k,MullerLyer,-0.045,-24.0,MullerLyer_-24.000_-0.0450.png,B,62.0,892345.0,0.685,arrowdown,arrowdown,0
qjrzelgz6k,MullerLyer,0.37364,-30.0,MullerLyer_-30.000_0.37364.png,B,63.0,893900.0,0.642,arrowup,arrowup,0
qjrzelgz6k,MullerLyer,0.37364,-12.0,MullerLyer_-12.000_0.37364.png,B,64.0,895560.0,0.502,arrowup,arrowup,0
qjrzelgz6k,MullerLyer,0.1337,-30.0,MullerLyer_-30.000_0.13370.png,B,65.0,896677.0,0.649,arrowup,arrowup,0
qjrzelgz6k,MullerLyer,-0.045,24.0,MullerLyer_24.0000_-0.0450.png,B,66.0,898309.0,1.033,arrowup,arrowdown,1
qjrzelgz6k,MullerLyer,0.37364,18.0,MullerLyer_18.0000_0.37364.png,B,67.0,900170.0,0.86,arrowup,arrowup,0
qjrzelgz6k,MullerLyer,-0.1337,-12.0,MullerLyer_-12.000_-0.1337.png,B,68.0,901835.0,0.794,arrowdown,arrowdown,0
qjrzelgz6k,MullerLyer,0.37364,-18.0,MullerLyer_-18.000_0.37364.png,B,69.0,903372.0,0.889,arrowup,arrowup,0
qjrzelgz6k,MullerLyer,-0.24183,-12.0,MullerLyer_-12.000_-0.24183.png,B,70.0,905069.0,0.649,arrowdown,arrowdown,0
qjrzelgz6k,MullerLyer,-0.37364,30.0,MullerLyer_30.0000_-0.37364.png,B,71.0,906532.0,1.225,arrowdown,arrowdown,0
qjrzelgz6k,MullerLyer,-0.1337,24.0,MullerLyer_24.0000_-0.1337.png,B,72.0,908775.0,1.686,arrowdown,arrowdown,0
qjrzelgz6k,MullerLyer,-0.24183,30.0,MullerLyer_30.0000_-0.24183.png,B,73.0,911247.0,0.887,arrowdown,arrowdown,0
qjrzelgz6k,MullerLyer,-0.045,-12.0,MullerLyer_-12.000_-0.0450.png,B,74.0,912954.0,0.979,arrowdown,arrowdown,0
qjrzelgz6k,MullerLyer,0.045,18.0,MullerLyer_18.0000_0.04500.png,B,75.0,914643.0,1.067,arrowdown,arrowup,1
qjrzelgz6k,MullerLyer,-0.24183,-24.0,MullerLyer_-24.000_-0.24183.png,B,76.0,916347.0,0.714,arrowdown,arrowdown,0
qjrzelgz6k,MullerLyer,0.1337,6.0,MullerLyer_6.00000_0.13370.png,B,77.0,917985.0,1.324,arrowup,arrowup,0
qjrzelgz6k,MullerLyer,0.045,30.0,MullerLyer_30.0000_0.04500.png,B,78.0,920204.0,1.362,arrowdown,arrowup,1
qjrzelgz6k,MullerLyer,-0.37364,24.0,MullerLyer_24.0000_-0.37364.png,B,79.0,922588.0,1.042,arrowdown,arrowdown,0
qjrzelgz6k,MullerLyer,0.1337,30.0,MullerLyer_30.0000_0.13370.png,B,80.0,924713.0,3.293,arrowdown,arrowup,1
qjrzelgz6k,Ebbinghaus,-0.41515,0.6,Ebbinghaus_0.60000_-0.41515.png,B,1.0,935452.0,1.97,arrowright,arrowright,0
qjrzelgz6k,Ebbinghaus,0.14856,-1.2,Ebbinghaus_-1.2000_0.14856.png,B,2.0,938487.0,0.71,arrowleft,arrowleft,0
qjrzelgz6k,Ebbinghaus,0.41515,0.6,Ebbinghaus_0.60000_0.41515.png,B,3.0,940247.0,0.895,arrowleft,arrowleft,0
qjrzelgz6k,Ebbinghaus,-0.14856,0.3,Ebbinghaus_0.30000_-0.14856.png,B,4.0,941909.0,1.865,arrowleft,arrowright,1
qjrzelgz6k,Ebbinghaus,-0.41515,0.3,Ebbinghaus_0.30000_-0.41515.png,B,5.0,944498.0,0.803,arrowright,arrowright,0
qjrzelgz6k,Ebbinghaus,0.2687,1.2,Ebbinghaus_1.20000_0.26870.png,B,6.0,946034.0,1.564,arrowright,arrowleft,1
qjrzelgz6k,Ebbinghaus,-0.14856,-0.9,Ebbinghaus_-0.9000_-0.14856.png,B,7.0,948666.0,0.757,arrowright,arrowright,0
qjrzelgz6k,Ebbinghaus,0.05,0.9,Ebbinghaus_0.90000_0.05000.png,B,8.0,950092.0,1.362,arrowright,arrowleft,1
qjrzelgz6k,Ebbinghaus,0.14856,1.5,Ebbinghaus_1.50000_0.14856.png,B,9.0,952450.0,0.78,arrowright,arrowleft,1
qjrzelgz6k,Ebbinghaus,0.41515,-0.9,Ebbinghaus_-0.9000_0.41515.png,B,10.0,954215.0,0.687,arrowleft,arrowleft,0
qjrzelgz6k,Ebbinghaus,-0.2687,0.9,Ebbinghaus_0.90000_-0.2687.png,B,11.0,955600.0,1.374,arrowleft,arrowright,1
qjrzelgz6k,Ebbinghaus,-0.05,-0.6,Ebbinghaus_-0.6000_-0.0500.png,B,12.0,957711.0,0.872,arrowright,arrowright,0
qjrzelgz6k,Ebbinghaus,0.05,-0.6,Ebbinghaus_-0.6000_0.05000.png,B,13.0,959513.0,0.733,arrowleft,arrowleft,0
qjrzelgz6k,Ebbinghaus,0.41515,0.3,Ebbinghaus_0.30000_0.41515.png,B,14.0,961039.0,0.799,arrowleft,arrowleft,0
qjrzelgz6k,Ebbinghaus,-0.05,-1.2,Ebbinghaus_-1.2000_-0.0500.png,B,15.0,962545.0,0.916,arrowright,arrowright,0
qjrzelgz6k,Ebbinghaus,0.05,-0.9,Ebbinghaus_-0.9000_0.05000.png,B,16.0,964294.0,0.592,arrowleft,arrowleft,0
qjrzelgz6k,Ebbinghaus,-0.41515,1.5,Ebbinghaus_1.50000_-0.41515.png,B,17.0,965788.0,0.834,arrowright,arrowright,0
qjrzelgz6k,Ebbinghaus,0.41515,-0.3,Ebbinghaus_-0.3000_0.41515.png,B,18.0,967439.0,0.718,arrowleft,arrowleft,0
qjrzelgz6k,Ebbinghaus,0.2687,-0.9,Ebbinghaus_-0.9000_0.26870.png,B,19.0,968871.0,0.558,arrowleft,arrowleft,0
qjrzelgz6k,Ebbinghaus,-0.14856,1.2,Ebbinghaus_1.20000_-0.14856.png,B,20.0,970443.0,0.779,arrowleft,arrowright,1
qjrzelgz6k,Ebbinghaus,0.41515,-1.5,Ebbinghaus_-1.5000_0.41515.png,B,21.0,972225.0,0.541,arrowleft,arrowleft,0
qjrzelgz6k,Ebbinghaus,-0.2687,1.2,Ebbinghaus_1.20000_-0.2687.png,B,22.0,973415.0,0.768,arrowleft,arrowright,1
qjrzelgz6k,Ebbinghaus,0.14856,1.2,Ebbinghaus_1.20000_0.14856.png,B,23.0,974813.0,0.904,arrowright,arrowleft,1
qjrzelgz6k,Ebbinghaus,0.14856,-0.9,Ebbinghaus_-0.9000_0.14856.png,B,24.0,976386.0,0.835,arrowleft,arrowleft,0
qjrzelgz6k,Ebbinghaus,-0.41515,-0.6,Ebbinghaus_-0.6000_-0.41515.png,B,25.0,977876.0,0.577,arrowright,arrowright,0
qjrzelgz6k,Ebbinghaus,0.41515,-0.6,Ebbinghaus_-0.6000_0.41515.png,B,26.0,979472.0,0.502,arrowleft,arrowleft,0
qjrzelgz6k,Ebbinghaus,0.2687,0.3,Ebbinghaus_0.30000_0.26870.png,B,27.0,980899.0,0.737,arrowleft,arrowleft,0
qjrzelgz6k,Ebbinghaus,-0.05,0.6,Ebbinghaus_0.60000_-0.0500.png,B,28.0,982667.0,0.914,arrowleft,arrowright,1
qjrzelgz6k,Ebbinghaus,-0.05,-0.9,Ebbinghaus_-0.9000_-0.0500.png,B,29.0,984468.0,0.593,arrowright,arrowright,0
qjrzelgz6k,Ebbinghaus,-0.14856,0.9,Ebbinghaus_0.90000_-0.14856.png,B,30.0,986150.0,1.407,arrowleft,arrowright,1
qjrzelgz6k,Ebbinghaus,-0.41515,-1.2,Ebbinghaus_-1.2000_-0.41515.png,B,31.0,988428.0,0.722,arrowright,arrowright,0
qjrzelgz6k,Ebbinghaus,0.05,1.5,Ebbinghaus_1.50000_0.05000.png,B,32.0,990198.0,0.855,arrowright,arrowleft,1
qjrzelgz6k,Ebbinghaus,-0.2687,0.3,Ebbinghaus_0.30000_-0.2687.png,B,33.0,991773.0,1.713,arrowright,arrowright,0
qjrzelgz6k,Ebbinghaus,-0.41515,0.9,Ebbinghaus_0.90000_-0.41515.png,B,34.0,994149.0,1.832,arrowright,arrowright,0
qjrzelgz6k,Ebbinghaus,-0.2687,0.6,Ebbinghaus_0.60000_-0.2687.png,B,35.0,996603.0,1.443,arrowleft,arrowright,1
qjrzelgz6k,Ebbinghaus,-0.05,1.2,Ebbinghaus_1.20000_-0.0500.png,B,36.0,998661.0,0.648,arrowleft,arrowright,1
qjrzelgz6k,Ebbinghaus,0.14856,-1.5,Ebbinghaus_-1.5000_0.14856.png,B,37.0,1000206.0,0.631,arrowleft,arrowleft,0
qjrzelgz6k,Ebbinghaus,-0.05,-1.5,Ebbinghaus_-1.5000_-0.0500.png,B,38.0,1001844.0,0.554,arrowright,arrowright,0
qjrzelgz6k,Ebbinghaus,-0.14856,0.6,Ebbinghaus_0.60000_-0.14856.png,B,39.0,1003243.0,1.034,arrowleft,arrowright,1
qjrzelgz6k,Ebbinghaus,-0.14856,-1.5,Ebbinghaus_-1.5000_-0.14856.png,B,40.0,1005324.0,0.585,arrowright,arrowright,0
qjrzelgz6k,Ebbinghaus,-0.41515,-0.3,Ebbinghaus_-0.3000_-0.41515.png,B,41.0,1007001.0,0.612,arrowright,arrowright,0
qjrzelgz6k,Ebbinghaus,-0.05,-0.3,Ebbinghaus_-0.3000_-0.0500.png,B,42.0,1008403.0,1.754,arrowleft,arrowright,1
qjrzelgz6k,Ebbinghaus,-0.05,0.3,Ebbinghaus_0.30000_-0.0500.png,B,43.0,1010952.0,1.31,arrowleft,arrowright,1
qjrzelgz6k,Ebbinghaus,0.14856,0.6,Ebbinghaus_0.60000_0.14856.png,B,44.0,1013261.0,1.384,arrowright,arrowleft,1
qjrzelgz6k,Ebbinghaus,-0.2687,-0.6,Ebbinghaus_-0.6000_-0.2687.png,B,45.0,1015305.0,0.812,arrowright,arrowright,0
qjrzelgz6k,Ebbinghaus,0.41515,0.9,Ebbinghaus_0.90000_0.41515.png,B,46.0,1016761.0,1.82,arrowleft,arrowleft,0
qjrzelgz6k,Ebbinghaus,-0.41515,1.2,Ebbinghaus_1.20000_-0.41515.png,B,47.0,1019598.0,2.727,arrowleft,arrowright,1
qjrzelgz6k,Ebbinghaus,0.41515,-1.2,Ebbinghaus_-1.2000_0.41515.png,B,48.0,1022949.0,1.392,arrowleft,arrowleft,0
qjrzelgz6k,Ebbinghaus,-0.41515,-1.5,Ebbinghaus_-1.5000_-0.41515.png,B,49.0,1025068.0,0.778,arrowright,arrowright,0
qjrzelgz6k,Ebbinghaus,-0.14856,1.5,Ebbinghaus_1.50000_-0.14856.png,B,50.0,1026844.0,1.105,arrowleft,arrowright,1
qjrzelgz6k,Ebbinghaus,-0.2687,1.5,Ebbinghaus_1.50000_-0.2687.png,B,51.0,1028743.0,1.262,arrowleft,arrowright,1
qjrzelgz6k,Ebbinghaus,0.2687,-0.3,Ebbinghaus_-0.3000_0.26870.png,B,52.0,1030771.0,1.155,arrowleft,arrowleft,0
qjrzelgz6k,Ebbinghaus,-0.2687,-1.2,Ebbinghaus_-1.2000_-0.2687.png,B,53.0,1032927.0,0.766,arrowright,arrowright,0
qjrzelgz6k,Ebbinghaus,-0.41515,-0.9,Ebbinghaus_-0.9000_-0.41515.png,B,54.0,1034354.0,0.611,arrowright,arrowright,0
qjrzelgz6k,Ebbinghaus,-0.2687,-0.3,Ebbinghaus_-0.3000_-0.2687.png,B,55.0,1035598.0,0.687,arrowright,arrowright,0
qjrzelgz6k,Ebbinghaus,0.05,-1.5,Ebbinghaus_-1.5000_0.05000.png,B,56.0,1037073.0,0.724,arrowleft,arrowleft,0
qjrzelgz6k,Ebbinghaus,0.05,1.2,Ebbinghaus_1.20000_0.05000.png,B,57.0,1038556.0,0.642,arrowright,arrowleft,1
qjrzelgz6k,Ebbinghaus,0.2687,-1.5,Ebbinghaus_-1.5000_0.26870.png,B,58.0,1040225.0,0.573,arrowleft,arrowleft,0
qjrzelgz6k,Ebbinghaus,0.05,0.3,Ebbinghaus_0.30000_0.05000.png,B,59.0,1041510.0,0.775,arrowleft,arrowleft,0
qjrzelgz6k,Ebbinghaus,0.05,0.6,Ebbinghaus_0.60000_0.05000.png,B,60.0,1043151.0,0.895,arrowright,arrowleft,1
qjrzelgz6k,Ebbinghaus,-0.14856,-0.3,Ebbinghaus_-0.3000_-0.14856.png,B,61.0,1044931.0,0.603,arrowright,arrowright,0
qjrzelgz6k,Ebbinghaus,0.2687,0.6,Ebbinghaus_0.60000_0.26870.png,B,62.0,1046236.0,0.785,arrowleft,arrowleft,0
qjrzelgz6k,Ebbinghaus,0.05,-1.2,Ebbinghaus_-1.2000_0.05000.png,B,63.0,1047675.0,0.587,arrowleft,arrowleft,0
qjrzelgz6k,Ebbinghaus,0.14856,0.9,Ebbinghaus_0.90000_0.14856.png,B,64.0,1048953.0,1.021,arrowright,arrowleft,1
qjrzelgz6k,Ebbinghaus,-0.2687,-1.5,Ebbinghaus_-1.5000_-0.2687.png,B,65.0,1051026.0,0.548,arrowright,arrowright,0
qjrzelgz6k,Ebbinghaus,0.2687,-0.6,Ebbinghaus_-0.6000_0.26870.png,B,66.0,1052270.0,0.656,arrowleft,arrowleft,0
qjrzelgz6k,Ebbinghaus,0.2687,0.9,Ebbinghaus_0.90000_0.26870.png,B,67.0,1053998.0,1.704,arrowright,arrowleft,1
qjrzelgz6k,Ebbinghaus,-0.05,0.9,Ebbinghaus_0.90000_-0.0500.png,B,68.0,1056465.0,0.662,arrowleft,arrowright,1
qjrzelgz6k,Ebbinghaus,-0.14856,-1.2,Ebbinghaus_-1.2000_-0.14856.png,B,69.0,1057858.0,0.533,arrowright,arrowright,0
qjrzelgz6k,Ebbinghaus,0.41515,1.5,Ebbinghaus_1.50000_0.41515.png,B,70.0,1059273.0,0.965,arrowleft,arrowleft,0
qjrzelgz6k,Ebbinghaus,-0.05,1.5,Ebbinghaus_1.50000_-0.0500.png,B,71.0,1061222.0,0.591,arrowleft,arrowright,1
qjrzelgz6k,Ebbinghaus,0.2687,1.5,Ebbinghaus_1.50000_0.26870.png,B,72.0,1062684.0,0.457,arrowleft,arrowleft,0
qjrzelgz6k,Ebbinghaus,-0.2687,-0.9,Ebbinghaus_-0.9000_-0.2687.png,B,73.0,1063881.0,0.612,arrowright,arrowright,0
qjrzelgz6k,Ebbinghaus,-0.14856,-0.6,Ebbinghaus_-0.6000_-0.14856.png,B,74.0,1065316.0,0.569,arrowright,arrowright,0
qjrzelgz6k,Ebbinghaus,0.14856,-0.3,Ebbinghaus_-0.3000_0.14856.png,B,75.0,1066542.0,0.592,arrowleft,arrowleft,0
qjrzelgz6k,Ebbinghaus,0.05,-0.3,Ebbinghaus_-0.3000_0.05000.png,B,76.0,1068111.0,0.631,arrowleft,arrowleft,0
qjrzelgz6k,Ebbinghaus,0.14856,-0.6,Ebbinghaus_-0.6000_0.14856.png,B,77.0,1069442.0,0.612,arrowleft,arrowleft,0
qjrzelgz6k,Ebbinghaus,0.14856,0.3,Ebbinghaus_0.30000_0.14856.png,B,78.0,1071154.0,1.395,arrowleft,arrowleft,0
qjrzelgz6k,Ebbinghaus,0.2687,-1.2,Ebbinghaus_-1.2000_0.26870.png,B,79.0,1073260.0,0.578,arrowleft,arrowleft,0
qjrzelgz6k,Ebbinghaus,0.41515,1.2,Ebbinghaus_1.20000_0.41515.png,B,80.0,1074830.0,2.72,arrowleft,arrowleft,0
qjrzelgz6k,VerticalHorizontal,-0.08913,-27.0,VerticalHorizontal_-27.000_-0.08913.png,B,1.0,1097143.0,0.902,arrowright,arrowright,0
qjrzelgz6k,VerticalHorizontal,-0.08913,9.0,VerticalHorizontal_9.00000_-0.08913.png,B,2.0,1098777.0,0.596,arrowright,arrowright,0
qjrzelgz6k,VerticalHorizontal,0.08913,18.0,VerticalHorizontal_18.0000_0.08913.png,B,3.0,1100285.0,0.593,arrowright,arrowleft,1
qjrzelgz6k,VerticalHorizontal,0.08913,27.0,VerticalHorizontal_27.0000_0.08913.png,B,4.0,1101509.0,2.119,arrowright,arrowleft,1
qjrzelgz6k,VerticalHorizontal,-0.24909,9.0,VerticalHorizontal_9.00000_-0.24909.png,B,5.0,1104447.0,0.758,arrowright,arrowright,0
qjrzelgz6k,VerticalHorizontal,0.16122,45.0,VerticalHorizontal_45.0000_0.16122.png,B,6.0,1106291.0,1.97,arrowright,arrowleft,1
qjrzelgz6k,VerticalHorizontal,0.24909,9.0,VerticalHorizontal_9.00000_0.24909.png,B,7.0,1108986.0,0.659,arrowleft,arrowleft,0
qjrzelgz6k,VerticalHorizontal,-0.24909,45.0,VerticalHorizontal_45.0000_-0.24909.png,B,8.0,1110262.0,2.991,arrowright,arrowright,0
qjrzelgz6k,VerticalHorizontal,0.03,36.0,VerticalHorizontal_36.0000_0.03000.png,B,9.0,1114056.0,1.053,arrowright,arrowleft,1
qjrzelgz6k,VerticalHorizontal,-0.08913,45.0,VerticalHorizontal_45.0000_-0.08913.png,B,10.0,1115767.0,1.181,arrowleft,arrowright,1
qjrzelgz6k,VerticalHorizontal,0.08913,-45.0,VerticalHorizontal_-45.000_0.08913.png,B,11.0,1117799.0,0.502,arrowleft,arrowleft,0
qjrzelgz6k,VerticalHorizontal,0.03,-18.0,VerticalHorizontal_-18.000_0.03000.png,B,12.0,1119385.0,0.652,arrowleft,arrowleft,0
qjrzelgz6k,VerticalHorizontal,-0.08913,-36.0,VerticalHorizontal_-36.000_-0.08913.png,B,13.0,1120953.0,0.588,arrowright,arrowright,0
qjrzelgz6k,VerticalHorizontal,0.03,-45.0,VerticalHorizontal_-45.000_0.03000.png,B,14.0,1122575.0,0.534,arrowleft,arrowleft,0
qjrzelgz6k,VerticalHorizontal,0.24909,-36.0,VerticalHorizontal_-36.000_0.24909.png,B,15.0,1123777.0,0.516,arrowleft,arrowleft,0
qjrzelgz6k,VerticalHorizontal,-0.08913,27.0,VerticalHorizontal_27.0000_-0.08913.png,B,16.0,1124945.0,0.612,arrowleft,arrowright,1
qjrzelgz6k,VerticalHorizontal,0.16122,-9.0,VerticalHorizontal_-9.0000_0.16122.png,B,17.0,1126297.0,0.891,arrowleft,arrowleft,0
qjrzelgz6k,VerticalHorizontal,-0.03,18.0,VerticalHorizontal_18.0000_-0.0300.png,B,18.0,1128239.0,1.27,arrowleft,arrowright,1
qjrzelgz6k,VerticalHorizontal,-0.03,-18.0,VerticalHorizontal_-18.000_-0.0300.png,B,19.0,1130472.0,0.757,arrowright,arrowright,0
qjrzelgz6k,VerticalHorizontal,0.24909,27.0,VerticalHorizontal_27.0000_0.24909.png,B,20.0,1131898.0,1.667,arrowleft,arrowleft,0
qjrzelgz6k,VerticalHorizontal,-0.24909,36.0,VerticalHorizontal_36.0000_-0.24909.png,B,21.0,1134348.0,1.984,arrowright,arrowright,0
qjrzelgz6k,VerticalHorizontal,0.03,-36.0,VerticalHorizontal_-36.000_0.03000.png,B,22.0,1137292.0,0.577,arrowleft,arrowleft,0
qjrzelgz6k,VerticalHorizontal,0.03,18.0,VerticalHorizontal_18.0000_0.03000.png,B,23.0,1138526.0,1.663,arrowright,arrowleft,1
qjrzelgz6k,VerticalHorizontal,0.24909,-18.0,VerticalHorizontal_-18.000_0.24909.png,B,24.0,1141049.0,0.699,arrowleft,arrowleft,0
qjrzelgz6k,VerticalHorizontal,-0.03,9.0,VerticalHorizontal_9.00000_-0.0300.png,B,25.0,1142728.0,1.197,arrowleft,arrowright,1
qjrzelgz6k,VerticalHorizontal,-0.03,45.0,VerticalHorizontal_45.0000_-0.0300.png,B,26.0,1144891.0,1.369,arrowleft,arrowright,1
qjrzelgz6k,VerticalHorizontal,-0.08913,-45.0,VerticalHorizontal_-45.000_-0.08913.png,B,27.0,1146903.0,0.878,arrowright,arrowright,0
qjrzelgz6k,VerticalHorizontal,-0.16122,-45.0,VerticalHorizontal_-45.000_-0.16122.png,B,28.0,1148735.0,0.757,arrowright,arrowright,0
qjrzelgz6k,VerticalHorizontal,-0.03,36.0,VerticalHorizontal_36.0000_-0.0300.png,B,29.0,1150164.0,0.696,arrowleft,arrowright,1
qjrzelgz6k,VerticalHorizontal,0.24909,-9.0,VerticalHorizontal_-9.0000_0.24909.png,B,30.0,1151595.0,0.762,arrowleft,arrowleft,0
qjrzelgz6k,VerticalHorizontal,-0.03,-9.0,VerticalHorizontal_-9.0000_-0.0300.png,B,31.0,1153452.0,1.464,arrowright,arrowright,0
qjrzelgz6k,VerticalHorizontal,0.08913,-27.0,VerticalHorizontal_-27.000_0.08913.png,B,32.0,1155701.0,4.065,arrowleft,arrowleft,0
qjrzelgz6k,VerticalHorizontal,-0.16122,-36.0,VerticalHorizontal_-36.000_-0.16122.png,B,33.0,1160464.0,0.629,arrowright,arrowright,0
qjrzelgz6k,VerticalHorizontal,-0.16122,-27.0,VerticalHorizontal_-27.000_-0.16122.png,B,34.0,1161941.0,0.599,arrowright,arrowright,0
qjrzelgz6k,VerticalHorizontal,-0.08913,-18.0,VerticalHorizontal_-18.000_-0.08913.png,B,35.0,1163400.0,0.597,arrowright,arrowright,0
qjrzelgz6k,VerticalHorizontal,0.16122,-45.0,VerticalHorizontal_-45.000_0.16122.png,B,36.0,1164989.0,0.712,arrowleft,arrowleft,0
qjrzelgz6k,VerticalHorizontal,-0.16122,18.0,VerticalHorizontal_18.0000_-0.16122.png,B,37.0,1166627.0,0.81,arrowleft,arrowright,1
qjrzelgz6k,VerticalHorizontal,-0.03,-27.0,VerticalHorizontal_-27.000_-0.0300.png,B,38.0,1168493.0,0.553,arrowright,arrowright,0
qjrzelgz6k,VerticalHorizontal,0.16122,-18.0,VerticalHorizontal_-18.000_0.16122.png,B,39.0,1169656.0,0.589,arrowleft,arrowleft,0
qjrzelgz6k,VerticalHorizontal,0.16122,27.0,VerticalHorizontal_27.0000_0.16122.png,B,40.0,1170927.0,1.911,arrowright,arrowleft,1
qjrzelgz6k,VerticalHorizontal,0.03,-27.0,VerticalHorizontal_-27.000_0.03000.png,B,41.0,1173711.0,0.575,arrowleft,arrowleft,0
qjrzelgz6k,VerticalHorizontal,-0.16122,45.0,VerticalHorizontal_45.0000_-0.16122.png,B,42.0,1174934.0,1.175,arrowleft,arrowright,1
qjrzelgz6k,VerticalHorizontal,-0.24909,-36.0,VerticalHorizontal_-36.000_-0.24909.png,B,43.0,1176990.0,0.527,arrowright,arrowright,0
qjrzelgz6k,VerticalHorizontal,-0.16122,9.0,VerticalHorizontal_9.00000_-0.16122.png,B,44.0,1178215.0,0.75,arrowright,arrowright,0
qjrzelgz6k,VerticalHorizontal,0.16122,18.0,VerticalHorizontal_18.0000_0.16122.png,B,45.0,1179933.0,0.697,arrowleft,arrowleft,0
qjrzelgz6k,VerticalHorizontal,-0.24909,27.0,VerticalHorizontal_27.0000_-0.24909.png,B,46.0,1181243.0,1.466,arrowright,arrowright,0
qjrzelgz6k,VerticalHorizontal,-0.08913,36.0,VerticalHorizontal_36.0000_-0.08913.png,B,47.0,1183493.0,0.8,arrowleft,arrowright,1
qjrzelgz6k,VerticalHorizontal,0.16122,-27.0,VerticalHorizontal_-27.000_0.16122.png,B,48.0,1185230.0,0.64,arrowleft,arrowleft,0
qjrzelgz6k,VerticalHorizontal,-0.24909,18.0,VerticalHorizontal_18.0000_-0.24909.png,B,49.0,1186898.0,0.731,arrowright,arrowright,0
qjrzelgz6k,VerticalHorizontal,-0.08913,18.0,VerticalHorizontal_18.0000_-0.08913.png,B,50.0,1188637.0,1.64,arrowright,arrowright,0
qjrzelgz6k,VerticalHorizontal,0.24909,18.0,VerticalHorizontal_18.0000_0.24909.png,B,51.0,1191286.0,1.135,arrowleft,arrowleft,0
qjrzelgz6k,VerticalHorizontal,0.24909,36.0,VerticalHorizontal_36.0000_0.24909.png,B,52.0,1193343.0,1.094,arrowleft,arrowleft,0
qjrzelgz6k,VerticalHorizontal,0.08913,-36.0,VerticalHorizontal_-36.000_0.08913.png,B,53.0,1195217.0,0.94,arrowleft,arrowleft,0
qjrzelgz6k,VerticalHorizontal,-0.08913,-9.0,VerticalHorizontal_-9.0000_-0.08913.png,B,54.0,1196969.0,0.756,arrowright,arrowright,0
qjrzelgz6k,VerticalHorizontal,0.16122,9.0,VerticalHorizontal_9.00000_0.16122.png,B,55.0,1198331.0,0.796,arrowleft,arrowleft,0
qjrzelgz6k,VerticalHorizontal,0.24909,-27.0,VerticalHorizontal_-27.000_0.24909.png,B,56.0,1199846.0,0.607,arrowleft,arrowleft,0
qjrzelgz6k,VerticalHorizontal,-0.24909,-9.0,VerticalHorizontal_-9.0000_-0.24909.png,B,57.0,1201533.0,0.512,arrowright,arrowright,0
qjrzelgz6k,VerticalHorizontal,0.08913,-9.0,VerticalHorizontal_-9.0000_0.08913.png,B,58.0,1202958.0,1.071,arrowleft,arrowleft,0
qjrzelgz6k,VerticalHorizontal,0.08913,9.0,VerticalHorizontal_9.00000_0.08913.png,B,59.0,1204667.0,1.339,arrowleft,arrowleft,0
qjrzelgz6k,VerticalHorizontal,-0.16122,36.0,VerticalHorizontal_36.0000_-0.16122.png,B,60.0,1207098.0,2.195,arrowright,arrowright,0
qjrzelgz6k,VerticalHorizontal,0.24909,-45.0,VerticalHorizontal_-45.000_0.24909.png,B,61.0,1209956.0,0.538,arrowleft,arrowleft,0
qjrzelgz6k,VerticalHorizontal,0.08913,-18.0,VerticalHorizontal_-18.000_0.08913.png,B,62.0,1211289.0,1.541,arrowleft,arrowleft,0
qjrzelgz6k,VerticalHorizontal,0.03,-9.0,VerticalHorizontal_-9.0000_0.03000.png,B,63.0,1213517.0,1.6,arrowleft,arrowleft,0
qjrzelgz6k,VerticalHorizontal,-0.16122,27.0,VerticalHorizontal_27.0000_-0.16122.png,B,64.0,1216129.0,0.7,arrowleft,arrowright,1
qjrzelgz6k,VerticalHorizontal,0.16122,-36.0,VerticalHorizontal_-36.000_0.16122.png,B,65.0,1217820.0,0.833,arrowleft,arrowleft,0
qjrzelgz6k,VerticalHorizontal,0.24909,45.0,VerticalHorizontal_45.0000_0.24909.png,B,66.0,1219454.0,1.112,arrowleft,arrowleft,0
qjrzelgz6k,VerticalHorizontal,-0.03,-45.0,VerticalHorizontal_-45.000_-0.0300.png,B,67.0,1221538.0,0.648,arrowright,arrowright,0
qjrzelgz6k,VerticalHorizontal,0.16122,36.0,VerticalHorizontal_36.0000_0.16122.png,B,68.0,1222812.0,0.985,arrowleft,arrowleft,0
qjrzelgz6k,VerticalHorizontal,-0.16122,-9.0,VerticalHorizontal_-9.0000_-0.16122.png,B,69.0,1224665.0,0.909,arrowright,arrowright,0
qjrzelgz6k,VerticalHorizontal,-0.16122,-18.0,VerticalHorizontal_-18.000_-0.16122.png,B,70.0,1226555.0,0.739,arrowright,arrowright,0
qjrzelgz6k,VerticalHorizontal,0.08913,36.0,VerticalHorizontal_36.0000_0.08913.png,B,71.0,1228385.0,0.597,arrowright,arrowleft,1
qjrzelgz6k,VerticalHorizontal,-0.03,-36.0,VerticalHorizontal_-36.000_-0.0300.png,B,72.0,1229620.0,0.729,arrowright,arrowright,0
qjrzelgz6k,VerticalHorizontal,0.03,9.0,VerticalHorizontal_9.00000_0.03000.png,B,73.0,1231130.0,2.852,arrowright,arrowleft,1
qjrzelgz6k,VerticalHorizontal,-0.24909,-18.0,VerticalHorizontal_-18.000_-0.24909.png,B,74.0,1234592.0,0.589,arrowright,arrowright,0
qjrzelgz6k,VerticalHorizontal,0.03,45.0,VerticalHorizontal_45.0000_0.03000.png,B,75.0,1236239.0,0.797,arrowright,arrowleft,1
qjrzelgz6k,VerticalHorizontal,-0.24909,-27.0,VerticalHorizontal_-27.000_-0.24909.png,B,76.0,1238057.0,0.548,arrowright,arrowright,0
qjrzelgz6k,VerticalHorizontal,0.08913,45.0,VerticalHorizontal_45.0000_0.08913.png,B,77.0,1239322.0,0.931,arrowright,arrowleft,1
qjrzelgz6k,VerticalHorizontal,-0.24909,-45.0,VerticalHorizontal_-45.000_-0.24909.png,B,78.0,1241309.0,0.544,arrowright,arrowright,0
qjrzelgz6k,VerticalHorizontal,0.03,27.0,VerticalHorizontal_27.0000_0.03000.png,B,79.0,1242886.0,0.655,arrowright,arrowleft,1
qjrzelgz6k,VerticalHorizontal,-0.03,27.0,VerticalHorizontal_27.0000_-0.0300.png,B,80.0,1244488.0,0.605,arrowleft,arrowright,1
7w8ocdog30,MullerLyer,0.18509,9.0,MullerLyer_9.00000_0.18509.png,A,1.0,443114.0,0.899,arrowup,arrowup,0
7w8ocdog30,MullerLyer,0.45,27.0,MullerLyer_27.0000_0.45000.png,A,2.0,445043.0,0.857,arrowup,arrowup,0
7w8ocdog30,MullerLyer,0.18509,-15.0,MullerLyer_-15.000_0.18509.png,A,3.0,446661.0,0.519,arrowup,arrowup,0
7w8ocdog30,MullerLyer,-0.45,-21.0,MullerLyer_-21.000_-0.4500.png,A,4.0,448022.0,0.455,arrowdown,arrowdown,0
7w8ocdog30,MullerLyer,0.30447,-15.0,MullerLyer_-15.000_0.30447.png,A,5.0,449228.0,0.529,arrowup,arrowup,0
7w8ocdog30,MullerLyer,-0.30447,9.0,MullerLyer_9.00000_-0.30447.png,A,6.0,450824.0,0.492,arrowdown,arrowdown,0
7w8ocdog30,MullerLyer,-0.18509,15.0,MullerLyer_15.0000_-0.18509.png,A,7.0,452206.0,0.751,arrowup,arrowdown,1
7w8ocdog30,MullerLyer,-0.18509,27.0,MullerLyer_27.0000_-0.18509.png,A,8.0,454064.0,0.596,arrowup,arrowdown,1
7w8ocdog30,MullerLyer,-0.08716,3.0,MullerLyer_3.00000_-0.08716.png,A,9.0,455578.0,0.746,arrowdown,arrowdown,0
7w8ocdog30,MullerLyer,-0.30447,-15.0,MullerLyer_-15.000_-0.30447.png,A,10.0,457064.0,0.532,arrowdown,arrowdown,0
7w8ocdog30,MullerLyer,-0.30447,-3.0,MullerLyer_-3.0000_-0.30447.png,A,11.0,458377.0,0.459,arrowdown,arrowdown,0
7w8ocdog30,MullerLyer,0.08716,9.0,MullerLyer_9.00000_0.08716.png,A,12.0,459544.0,0.851,arrowup,arrowup,0
7w8ocdog30,MullerLyer,0.08716,-21.0,MullerLyer_-21.000_0.08716.png,A,13.0,461064.0,0.603,arrowup,arrowup,0
7w8ocdog30,MullerLyer,-0.45,27.0,MullerLyer_27.0000_-0.4500.png,A,14.0,462580.0,0.719,arrowdown,arrowdown,0
7w8ocdog30,MullerLyer,0.45,-15.0,MullerLyer_-15.000_0.45000.png,A,15.0,464086.0,0.574,arrowup,arrowup,0
7w8ocdog30,MullerLyer,0.18509,27.0,MullerLyer_27.0000_0.18509.png,A,16.0,465727.0,0.494,arrowdown,arrowup,1
7w8ocdog30,MullerLyer,0.45,-3.0,MullerLyer_-3.0000_0.45000.png,A,17.0,467232.0,0.732,arrowup,arrowup,0
7w8ocdog30,MullerLyer,0.08716,-3.0,MullerLyer_-3.0000_0.08716.png,A,18.0,469034.0,0.731,arrowup,arrowup,0
7w8ocdog30,MullerLyer,-0.18509,21.0,MullerLyer_21.0000_-0.18509.png,A,19.0,470506.0,0.81,arrowup,arrowdown,1
7w8ocdog30,MullerLyer,0.30447,-3.0,MullerLyer_-3.0000_0.30447.png,A,20.0,472227.0,0.617,arrowup,arrowup,0
7w8ocdog30,MullerLyer,-0.08716,-27.0,MullerLyer_-27.000_-0.08716.png,A,21.0,473541.0,0.559,arrowdown,arrowdown,0
7w8ocdog30,MullerLyer,0.30447,15.0,MullerLyer_15.0000_0.30447.png,A,22.0,475100.0,0.616,arrowup,arrowup,0
7w8ocdog30,MullerLyer,-0.45,9.0,MullerLyer_9.00000_-0.4500.png,A,23.0,476760.0,0.548,arrowdown,arrowdown,0
7w8ocdog30,MullerLyer,0.18509,-27.0,MullerLyer_-27.000_0.18509.png,A,24.0,478058.0,0.458,arrowup,arrowup,0
7w8ocdog30,MullerLyer,-0.08716,-3.0,MullerLyer_-3.0000_-0.08716.png,A,25.0,479461.0,0.607,arrowdown,arrowdown,0
7w8ocdog30,MullerLyer,0.45,15.0,MullerLyer_15.0000_0.45000.png,A,26.0,480841.0,0.514,arrowup,arrowup,0
7w8ocdog30,MullerLyer,0.45,-9.0,MullerLyer_-9.0000_0.45000.png,A,27.0,482173.0,0.431,arrowup,arrowup,0
7w8ocdog30,MullerLyer,-0.08716,21.0,MullerLyer_21.0000_-0.08716.png,A,28.0,483629.0,0.432,arrowup,arrowdown,1
7w8ocdog30,MullerLyer,0.30447,-9.0,MullerLyer_-9.0000_0.30447.png,A,29.0,485113.0,0.475,arrowup,arrowup,0
7w8ocdog30,MullerLyer,0.30447,21.0,MullerLyer_21.0000_0.30447.png,A,30.0,486413.0,0.975,arrowdown,arrowup,1
7w8ocdog30,MullerLyer,-0.45,-27.0,MullerLyer_-27.000_-0.4500.png,A,31.0,488413.0,0.743,arrowdown,arrowdown,0
7w8ocdog30,MullerLyer,-0.08716,-9.0,MullerLyer_-9.0000_-0.08716.png,A,32.0,489996.0,0.896,arrowdown,arrowdown,0
7w8ocdog30,MullerLyer,0.30447,27.0,MullerLyer_27.0000_0.30447.png,A,33.0,491728.0,0.556,arrowdown,arrowup,1
7w8ocdog30,MullerLyer,0.30447,9.0,MullerLyer_9.00000_0.30447.png,A,34.0,493178.0,0.482,arrowup,arrowup,0
7w8ocdog30,MullerLyer,-0.45,21.0,MullerLyer_21.0000_-0.4500.png,A,35.0,494356.0,0.615,arrowdown,arrowdown,0
7w8ocdog30,MullerLyer,0.30447,-27.0,MullerLyer_-27.000_0.30447.png,A,36.0,495773.0,0.486,arrowup,arrowup,0
7w8ocdog30,MullerLyer,0.08716,15.0,MullerLyer_15.0000_0.08716.png,A,37.0,497263.0,0.461,arrowdown,arrowup,1
7w8ocdog30,MullerLyer,0.18509,21.0,MullerLyer_21.0000_0.18509.png,A,38.0,498345.0,0.659,arrowup,arrowup,0
7w8ocdog30,MullerLyer,-0.18509,-21.0,MullerLyer_-21.000_-0.18509.png,A,39.0,499971.0,0.496,arrowdown,arrowdown,0
7w8ocdog30,MullerLyer,-0.30447,27.0,MullerLyer_27.0000_-0.30447.png,A,40.0,501302.0,0.645,arrowup,arrowdown,1
7w8ocdog30,MullerLyer,0.08716,21.0,MullerLyer_21.0000_0.08716.png,A,41.0,502909.0,1.047,arrowdown,arrowup,1
7w8ocdog30,MullerLyer,0.45,-21.0,MullerLyer_-21.000_0.45000.png,A,42.0,505038.0,0.454,arrowup,arrowup,0
7w8ocdog30,MullerLyer,0.45,9.0,MullerLyer_9.00000_0.45000.png,A,43.0,506415.0,0.444,arrowup,arrowup,0
7w8ocdog30,MullerLyer,-0.45,15.0,MullerLyer_15.0000_-0.4500.png,A,44.0,507575.0,0.693,arrowdown,arrowdown,0
7w8ocdog30,MullerLyer,0.08716,-27.0,MullerLyer_-27.000_0.08716.png,A,45.0,509102.0,0.429,arrowup,arrowup,0
7w8ocdog30,MullerLyer,0.18509,3.0,MullerLyer_3.00000_0.18509.png,A,46.0,510230.0,0.59,arrowup,arrowup,0
7w8ocdog30,MullerLyer,-0.08716,15.0,MullerLyer_15.0000_-0.08716.png,A,47.0,511657.0,0.523,arrowup,arrowdown,1
7w8ocdog30,MullerLyer,-0.18509,-9.0,MullerLyer_-9.0000_-0.18509.png,A,48.0,512915.0,0.521,arrowdown,arrowdown,0
7w8ocdog30,MullerLyer,0.30447,3.0,MullerLyer_3.00000_0.30447.png,A,49.0,514072.0,0.484,arrowup,arrowup,0
7w8ocdog30,MullerLyer,0.45,-27.0,MullerLyer_-27.000_0.45000.png,A,50.0,515221.0,0.375,arrowup,arrowup,0
7w8ocdog30,MullerLyer,-0.30447,-27.0,MullerLyer_-27.000_-0.30447.png,A,51.0,516670.0,0.526,arrowdown,arrowdown,0
7w8ocdog30,MullerLyer,0.18509,-21.0,MullerLyer_-21.000_0.18509.png,A,52.0,518252.0,0.481,arrowup,arrowup,0
7w8ocdog30,MullerLyer,0.18509,-3.0,MullerLyer_-3.0000_0.18509.png,A,53.0,519509.0,0.528,arrowup,arrowup,0
7w8ocdog30,MullerLyer,-0.45,-15.0,MullerLyer_-15.000_-0.4500.png,A,54.0,520744.0,0.517,arrowdown,arrowdown,0
7w8ocdog30,MullerLyer,-0.30447,15.0,MullerLyer_15.0000_-0.30447.png,A,55.0,522114.0,0.563,arrowup,arrowdown,1
7w8ocdog30,MullerLyer,0.45,3.0,MullerLyer_3.00000_0.45000.png,A,56.0,523624.0,0.453,arrowup,arrowup,0
7w8ocdog30,MullerLyer,0.08716,-9.0,MullerLyer_-9.0000_0.08716.png,A,57.0,524694.0,0.51,arrowup,arrowup,0
7w8ocdog30,MullerLyer,-0.30447,21.0,MullerLyer_21.0000_-0.30447.png,A,58.0,526303.0,1.197,arrowup,arrowdown,1
7w8ocdog30,MullerLyer,-0.18509,-15.0,MullerLyer_-15.000_-0.18509.png,A,59.0,528176.0,0.837,arrowdown,arrowdown,0
7w8ocdog30,MullerLyer,-0.18509,-3.0,MullerLyer_-3.0000_-0.18509.png,A,60.0,529752.0,0.508,arrowdown,arrowdown,0
7w8ocdog30,MullerLyer,-0.30447,-9.0,MullerLyer_-9.0000_-0.30447.png,A,61.0,530990.0,0.446,arrowdown,arrowdown,0
7w8ocdog30,MullerLyer,-0.45,3.0,MullerLyer_3.00000_-0.4500.png,A,62.0,532196.0,0.481,arrowdown,arrowdown,0
7w8ocdog30,MullerLyer,-0.08716,-21.0,MullerLyer_-21.000_-0.08716.png,A,63.0,533758.0,0.526,arrowdown,arrowdown,0
7w8ocdog30,MullerLyer,0.08716,3.0,MullerLyer_3.00000_0.08716.png,A,64.0,535284.0,0.585,arrowup,arrowup,0
7w8ocdog30,MullerLyer,0.08716,27.0,MullerLyer_27.0000_0.08716.png,A,65.0,536689.0,0.627,arrowdown,arrowup,1
7w8ocdog30,MullerLyer,-0.18509,-27.0,MullerLyer_-27.000_-0.18509.png,A,66.0,538378.0,0.506,arrowdown,arrowdown,0
7w8ocdog30,MullerLyer,0.18509,-9.0,MullerLyer_-9.0000_0.18509.png,A,67.0,539555.0,0.53,arrowup,arrowup,0
7w8ocdog30,MullerLyer,0.30447,-21.0,MullerLyer_-21.000_0.30447.png,A,68.0,540939.0,0.417,arrowup,arrowup,0
7w8ocdog30,MullerLyer,-0.45,-9.0,MullerLyer_-9.0000_-0.4500.png,A,69.0,542099.0,0.514,arrowdown,arrowdown,0
7w8ocdog30,MullerLyer,-0.30447,-21.0,MullerLyer_-21.000_-0.30447.png,A,70.0,543641.0,0.475,arrowdown,arrowdown,0
7w8ocdog30,MullerLyer,0.45,21.0,MullerLyer_21.0000_0.45000.png,A,71.0,545039.0,0.573,arrowup,arrowup,0
7w8ocdog30,MullerLyer,-0.08716,9.0,MullerLyer_9.00000_-0.08716.png,A,72.0,546227.0,0.713,arrowup,arrowdown,1
7w8ocdog30,MullerLyer,-0.18509,3.0,MullerLyer_3.00000_-0.18509.png,A,73.0,547664.0,0.78,arrowdown,arrowdown,0
7w8ocdog30,MullerLyer,-0.08716,-15.0,MullerLyer_-15.000_-0.08716.png,A,74.0,549357.0,0.415,arrowdown,arrowdown,0
7w8ocdog30,MullerLyer,-0.45,-3.0,MullerLyer_-3.0000_-0.4500.png,A,75.0,550445.0,0.488,arrowdown,arrowdown,0
7w8ocdog30,MullerLyer,0.08716,-15.0,MullerLyer_-15.000_0.08716.png,A,76.0,551931.0,0.53,arrowup,arrowup,0
7w8ocdog30,MullerLyer,-0.18509,9.0,MullerLyer_9.00000_-0.18509.png,A,77.0,553387.0,0.794,arrowup,arrowdown,1
7w8ocdog30,MullerLyer,-0.30447,3.0,MullerLyer_3.00000_-0.30447.png,A,78.0,555209.0,0.404,arrowdown,arrowdown,0
7w8ocdog30,MullerLyer,0.18509,15.0,MullerLyer_15.0000_0.18509.png,A,79.0,556596.0,0.456,arrowdown,arrowup,1
7w8ocdog30,MullerLyer,-0.08716,27.0,MullerLyer_27.0000_-0.08716.png,A,80.0,557682.0,0.611,arrowup,arrowdown,1
7w8ocdog30,Ebbinghaus,0.3383,-0.15,Ebbinghaus_-0.1500_0.33830.png,A,1.0,573538.0,0.507,arrowleft,arrowleft,0
7w8ocdog30,Ebbinghaus,-0.5,-0.75,Ebbinghaus_-0.7500_-0.5000.png,A,2.0,575058.0,0.363,arrowleft,arrowright,1
7w8ocdog30,Ebbinghaus,-0.20566,0.75,Ebbinghaus_0.75000_-0.20566.png,A,3.0,576403.0,0.817,arrowright,arrowright,0
7w8ocdog30,Ebbinghaus,-0.20566,-1.35,Ebbinghaus_-1.3500_-0.20566.png,A,4.0,578188.0,0.968,arrowright,arrowright,0
7w8ocdog30,Ebbinghaus,-0.5,-1.05,Ebbinghaus_-1.0500_-0.5000.png,A,5.0,580046.0,0.55,arrowright,arrowright,0
7w8ocdog30,Ebbinghaus,0.5,1.35,Ebbinghaus_1.35000_0.50000.png,A,6.0,581268.0,0.704,arrowleft,arrowleft,0
7w8ocdog30,Ebbinghaus,0.09684,0.75,Ebbinghaus_0.75000_0.09684.png,A,7.0,582599.0,0.869,arrowleft,arrowleft,0
7w8ocdog30,Ebbinghaus,0.20566,0.75,Ebbinghaus_0.75000_0.20566.png,A,8.0,584457.0,0.643,arrowleft,arrowleft,0
7w8ocdog30,Ebbinghaus,-0.09684,1.05,Ebbinghaus_1.05000_-0.09684.png,A,9.0,586017.0,0.788,arrowright,arrowright,0
7w8ocdog30,Ebbinghaus,-0.3383,0.75,Ebbinghaus_0.75000_-0.3383.png,A,10.0,587751.0,0.71,arrowright,arrowright,0
7w8ocdog30,Ebbinghaus,-0.20566,-0.45,Ebbinghaus_-0.4500_-0.20566.png,A,11.0,589424.0,0.612,arrowright,arrowright,0
7w8ocdog30,Ebbinghaus,-0.5,1.05,Ebbinghaus_1.05000_-0.5000.png,A,12.0,590794.0,0.531,arrowright,arrowright,0
7w8ocdog30,Ebbinghaus,-0.09684,-1.35,Ebbinghaus_-1.3500_-0.09684.png,A,13.0,592248.0,0.58,arrowright,arrowright,0
7w8ocdog30,Ebbinghaus,-0.20566,-0.75,Ebbinghaus_-0.7500_-0.20566.png,A,14.0,593548.0,0.504,arrowright,arrowright,0
7w8ocdog30,Ebbinghaus,0.3383,-0.45,Ebbinghaus_-0.4500_0.33830.png,A,15.0,594789.0,0.527,arrowleft,arrowleft,0
7w8ocdog30,Ebbinghaus,0.5,0.75,Ebbinghaus_0.75000_0.50000.png,A,16.0,596017.0,0.619,arrowleft,arrowleft,0
7w8ocdog30,Ebbinghaus,-0.3383,-1.05,Ebbinghaus_-1.0500_-0.3383.png,A,17.0,597299.0,0.562,arrowright,arrowright,0
7w8ocdog30,Ebbinghaus,-0.3383,-0.15,Ebbinghaus_-0.1500_-0.3383.png,A,18.0,598644.0,0.56,arrowright,arrowright,0
7w8ocdog30,Ebbinghaus,0.20566,-0.15,Ebbinghaus_-0.1500_0.20566.png,A,19.0,599931.0,0.569,arrowleft,arrowleft,0
7w8ocdog30,Ebbinghaus,-0.5,-0.15,Ebbinghaus_-0.1500_-0.5000.png,A,20.0,601512.0,0.517,arrowright,arrowright,0
7w8ocdog30,Ebbinghaus,0.09684,1.05,Ebbinghaus_1.05000_0.09684.png,A,21.0,602877.0,0.463,arrowleft,arrowleft,0
7w8ocdog30,Ebbinghaus,-0.09684,1.35,Ebbinghaus_1.35000_-0.09684.png,A,22.0,604333.0,0.415,arrowright,arrowright,0
7w8ocdog30,Ebbinghaus,-0.3383,0.15,Ebbinghaus_0.15000_-0.3383.png,A,23.0,605738.0,0.49,arrowright,arrowright,0
7w8ocdog30,Ebbinghaus,0.5,0.15,Ebbinghaus_0.15000_0.50000.png,A,24.0,607200.0,0.452,arrowleft,arrowleft,0
7w8ocdog30,Ebbinghaus,-0.20566,-1.05,Ebbinghaus_-1.0500_-0.20566.png,A,25.0,608328.0,0.716,arrowright,arrowright,0
7w8ocdog30,Ebbinghaus,-0.5,0.45,Ebbinghaus_0.45000_-0.5000.png,A,26.0,610094.0,0.422,arrowright,arrowright,0
7w8ocdog30,Ebbinghaus,-0.20566,1.35,Ebbinghaus_1.35000_-0.20566.png,A,27.0,611413.0,0.671,arrowleft,arrowright,1
7w8ocdog30,Ebbinghaus,0.3383,0.45,Ebbinghaus_0.45000_0.33830.png,A,28.0,612925.0,0.591,arrowleft,arrowleft,0
7w8ocdog30,Ebbinghaus,0.20566,1.35,Ebbinghaus_1.35000_0.20566.png,A,29.0,614285.0,0.583,arrowleft,arrowleft,0
7w8ocdog30,Ebbinghaus,0.3383,1.05,Ebbinghaus_1.05000_0.33830.png,A,30.0,615494.0,0.527,arrowleft,arrowleft,0
7w8ocdog30,Ebbinghaus,-0.5,1.35,Ebbinghaus_1.35000_-0.5000.png,A,31.0,616966.0,0.454,arrowright,arrowright,0
7w8ocdog30,Ebbinghaus,-0.20566,0.45,Ebbinghaus_0.45000_-0.20566.png,A,32.0,618367.0,0.469,arrowright,arrowright,0
7w8ocdog30,Ebbinghaus,-0.09684,-0.75,Ebbinghaus_-0.7500_-0.09684.png,A,33.0,619747.0,0.65,arrowright,arrowright,0
7w8ocdog30,Ebbinghaus,-0.3383,-0.75,Ebbinghaus_-0.7500_-0.3383.png,A,34.0,621169.0,0.467,arrowright,arrowright,0
7w8ocdog30,Ebbinghaus,0.09684,-1.35,Ebbinghaus_-1.3500_0.09684.png,A,35.0,622723.0,0.465,arrowleft,arrowleft,0
7w8ocdog30,Ebbinghaus,-0.5,0.15,Ebbinghaus_0.15000_-0.5000.png,A,36.0,624071.0,0.437,arrowright,arrowright,0
7w8ocdog30,Ebbinghaus,0.5,-1.35,Ebbinghaus_-1.3500_0.50000.png,A,37.0,625173.0,0.536,arrowleft,arrowleft,0
7w8ocdog30,Ebbinghaus,0.3383,0.75,Ebbinghaus_0.75000_0.33830.png,A,38.0,626613.0,0.399,arrowleft,arrowleft,0
7w8ocdog30,Ebbinghaus,-0.3383,1.35,Ebbinghaus_1.35000_-0.3383.png,A,39.0,627685.0,0.495,arrowright,arrowright,0
7w8ocdog30,Ebbinghaus,0.09684,0.15,Ebbinghaus_0.15000_0.09684.png,A,40.0,629168.0,1.004,arrowleft,arrowleft,0
7w8ocdog30,Ebbinghaus,-0.09684,-1.05,Ebbinghaus_-1.0500_-0.09684.png,A,41.0,630842.0,0.802,arrowright,arrowright,0
7w8ocdog30,Ebbinghaus,-0.09684,0.15,Ebbinghaus_0.15000_-0.09684.png,A,42.0,632313.0,0.803,arrowright,arrowright,0
7w8ocdog30,Ebbinghaus,-0.3383,-1.35,Ebbinghaus_-1.3500_-0.3383.png,A,43.0,634087.0,0.925,arrowright,arrowright,0
7w8ocdog30,Ebbinghaus,0.5,0.45,Ebbinghaus_0.45000_0.50000.png,A,44.0,635993.0,0.523,arrowleft,arrowleft,0
7w8ocdog30,Ebbinghaus,-0.3383,-0.45,Ebbinghaus_-0.4500_-0.3383.png,A,45.0,637155.0,0.577,arrowright,arrowright,0
7w8ocdog30,Ebbinghaus,-0.5,0.75,Ebbinghaus_0.75000_-0.5000.png,A,46.0,638652.0,0.456,arrowright,arrowright,0
7w8ocdog30,Ebbinghaus,-0.09684,0.45,Ebbinghaus_0.45000_-0.09684.png,A,47.0,639859.0,0.673,arrowleft,arrowright,1
7w8ocdog30,Ebbinghaus,0.09684,-0.75,Ebbinghaus_-0.7500_0.09684.png,A,48.0,641222.0,0.559,arrowleft,arrowleft,0
7w8ocdog30,Ebbinghaus,0.3383,-1.35,Ebbinghaus_-1.3500_0.33830.png,A,49.0,642539.0,0.497,arrowleft,arrowleft,0
7w8ocdog30,Ebbinghaus,0.3383,0.15,Ebbinghaus_0.15000_0.33830.png,A,50.0,644102.0,0.51,arrowleft,arrowleft,0
7w8ocdog30,Ebbinghaus,-0.3383,1.05,Ebbinghaus_1.05000_-0.3383.png,A,51.0,645559.0,0.477,arrowright,arrowright,0
7w8ocdog30,Ebbinghaus,-0.20566,-0.15,Ebbinghaus_-0.1500_-0.20566.png,A,52.0,647032.0,0.468,arrowright,arrowright,0
7w8ocdog30,Ebbinghaus,0.5,-1.05,Ebbinghaus_-1.0500_0.50000.png,A,53.0,648248.0,0.468,arrowleft,arrowleft,0
7w8ocdog30,Ebbinghaus,-0.20566,1.05,Ebbinghaus_1.05000_-0.20566.png,A,54.0,649437.0,0.911,arrowright,arrowright,0
7w8ocdog30,Ebbinghaus,0.3383,-1.05,Ebbinghaus_-1.0500_0.33830.png,A,55.0,651419.0,0.433,arrowleft,arrowleft,0
7w8ocdog30,Ebbinghaus,0.09684,-0.15,Ebbinghaus_-0.1500_0.09684.png,A,56.0,652676.0,0.712,arrowleft,arrowleft,0
7w8ocdog30,Ebbinghaus,0.09684,0.45,Ebbinghaus_0.45000_0.09684.png,A,57.0,654469.0,0.455,arrowleft,arrowleft,0
7w8ocdog30,Ebbinghaus,0.5,-0.45,Ebbinghaus_-0.4500_0.50000.png,A,58.0,655743.0,0.493,arrowleft,arrowleft,0
7w8ocdog30,Ebbinghaus,0.3383,-0.75,Ebbinghaus_-0.7500_0.33830.png,A,59.0,657305.0,0.443,arrowleft,arrowleft,0
7w8ocdog30,Ebbinghaus,0.20566,-1.35,Ebbinghaus_-1.3500_0.20566.png,A,60.0,658837.0,0.582,arrowleft,arrowleft,0
7w8ocdog30,Ebbinghaus,0.20566,-0.75,Ebbinghaus_-0.7500_0.20566.png,A,61.0,660239.0,0.685,arrowleft,arrowleft,0
7w8ocdog30,Ebbinghaus,-0.5,-0.45,Ebbinghaus_-0.4500_-0.5000.png,A,62.0,661742.0,0.486,arrowright,arrowright,0
7w8ocdog30,Ebbinghaus,0.09684,1.35,Ebbinghaus_1.35000_0.09684.png,A,63.0,663241.0,0.483,arrowleft,arrowleft,0
7w8ocdog30,Ebbinghaus,0.20566,-1.05,Ebbinghaus_-1.0500_0.20566.png,A,64.0,664509.0,0.623,arrowleft,arrowleft,0
7w8ocdog30,Ebbinghaus,0.20566,1.05,Ebbinghaus_1.05000_0.20566.png,A,65.0,665870.0,0.862,arrowleft,arrowleft,0
7w8ocdog30,Ebbinghaus,-0.09684,0.75,Ebbinghaus_0.75000_-0.09684.png,A,66.0,667413.0,1.095,arrowleft,arrowright,1
7w8ocdog30,Ebbinghaus,0.09684,-0.45,Ebbinghaus_-0.4500_0.09684.png,A,67.0,669462.0,0.509,arrowleft,arrowleft,0
7w8ocdog30,Ebbinghaus,-0.20566,0.15,Ebbinghaus_0.15000_-0.20566.png,A,68.0,671078.0,0.702,arrowright,arrowright,0
7w8ocdog30,Ebbinghaus,0.20566,0.45,Ebbinghaus_0.45000_0.20566.png,A,69.0,672391.0,0.501,arrowleft,arrowleft,0
7w8ocdog30,Ebbinghaus,-0.09684,-0.45,Ebbinghaus_-0.4500_-0.09684.png,A,70.0,673798.0,0.718,arrowright,arrowright,0
7w8ocdog30,Ebbinghaus,0.5,-0.75,Ebbinghaus_-0.7500_0.50000.png,A,71.0,675282.0,0.466,arrowleft,arrowleft,0
7w8ocdog30,Ebbinghaus,0.5,1.05,Ebbinghaus_1.05000_0.50000.png,A,72.0,676660.0,0.488,arrowleft,arrowleft,0
7w8ocdog30,Ebbinghaus,0.20566,0.15,Ebbinghaus_0.15000_0.20566.png,A,73.0,677962.0,0.426,arrowleft,arrowleft,0
7w8ocdog30,Ebbinghaus,-0.3383,0.45,Ebbinghaus_0.45000_-0.3383.png,A,74.0,679032.0,0.525,arrowright,arrowright,0
7w8ocdog30,Ebbinghaus,-0.09684,-0.15,Ebbinghaus_-0.1500_-0.09684.png,A,75.0,680224.0,0.564,arrowright,arrowright,0
7w8ocdog30,Ebbinghaus,0.5,-0.15,Ebbinghaus_-0.1500_0.50000.png,A,76.0,681415.0,0.453,arrowleft,arrowleft,0
7w8ocdog30,Ebbinghaus,0.3383,1.35,Ebbinghaus_1.35000_0.33830.png,A,77.0,682512.0,0.461,arrowleft,arrowleft,0
7w8ocdog30,Ebbinghaus,0.20566,-0.45,Ebbinghaus_-0.4500_0.20566.png,A,78.0,683774.0,0.87,arrowleft,arrowleft,0
7w8ocdog30,Ebbinghaus,0.09684,-1.05,Ebbinghaus_-1.0500_0.09684.png,A,79.0,685667.0,0.44,arrowleft,arrowleft,0
7w8ocdog30,Ebbinghaus,-0.5,-1.35,Ebbinghaus_-1.3500_-0.5000.png,A,80.0,686989.0,0.495,arrowright,arrowright,0
7w8ocdog30,VerticalHorizontal,-0.20298,22.5,VerticalHorizontal_22.5000_-0.20298.png,A,1.0,697461.0,0.783,arrowright,arrowright,0
7w8ocdog30,VerticalHorizontal,-0.20298,40.5,VerticalHorizontal_40.5000_-0.20298.png,A,2.0,699104.0,0.491,arrowright,arrowright,0
7w8ocdog30,VerticalHorizontal,-0.20298,4.5,VerticalHorizontal_4.50000_-0.20298.png,A,3.0,700698.0,0.417,arrowright,arrowright,0
7w8ocdog30,VerticalHorizontal,0.0581,-40.5,VerticalHorizontal_-40.500_0.05810.png,A,4.0,702107.0,0.481,arrowleft,arrowleft,0
7w8ocdog30,VerticalHorizontal,0.20298,-31.5,VerticalHorizontal_-31.500_0.20298.png,A,5.0,703227.0,0.44,arrowleft,arrowleft,0
7w8ocdog30,VerticalHorizontal,0.3,31.5,VerticalHorizontal_31.5000_0.30000.png,A,6.0,704752.0,0.739,arrowleft,arrowleft,0
7w8ocdog30,VerticalHorizontal,-0.3,-4.5,VerticalHorizontal_-4.5000_-0.3000.png,A,7.0,706594.0,0.618,arrowright,arrowright,0
7w8ocdog30,VerticalHorizontal,0.3,22.5,VerticalHorizontal_22.5000_0.30000.png,A,8.0,708208.0,0.515,arrowleft,arrowleft,0
7w8ocdog30,VerticalHorizontal,0.0581,4.5,VerticalHorizontal_4.50000_0.05810.png,A,9.0,709713.0,0.707,arrowleft,arrowleft,0
7w8ocdog30,VerticalHorizontal,0.20298,13.5,VerticalHorizontal_13.5000_0.20298.png,A,10.0,711245.0,0.494,arrowright,arrowleft,1
7w8ocdog30,VerticalHorizontal,0.12339,-31.5,VerticalHorizontal_-31.500_0.12339.png,A,11.0,712497.0,0.498,arrowleft,arrowleft,0
7w8ocdog30,VerticalHorizontal,-0.3,13.5,VerticalHorizontal_13.5000_-0.3000.png,A,12.0,713734.0,0.517,arrowright,arrowright,0
7w8ocdog30,VerticalHorizontal,-0.3,31.5,VerticalHorizontal_31.5000_-0.3000.png,A,13.0,715128.0,0.395,arrowright,arrowright,0
7w8ocdog30,VerticalHorizontal,0.0581,-22.5,VerticalHorizontal_-22.500_0.05810.png,A,14.0,716525.0,0.638,arrowleft,arrowleft,0
7w8ocdog30,VerticalHorizontal,0.20298,40.5,VerticalHorizontal_40.5000_0.20298.png,A,15.0,718054.0,0.678,arrowleft,arrowleft,0
7w8ocdog30,VerticalHorizontal,-0.3,-40.5,VerticalHorizontal_-40.500_-0.3000.png,A,16.0,719486.0,0.469,arrowright,arrowright,0
7w8ocdog30,VerticalHorizontal,-0.12339,31.5,VerticalHorizontal_31.5000_-0.12339.png,A,17.0,720630.0,0.685,arrowleft,arrowright,1
7w8ocdog30,VerticalHorizontal,-0.0581,-22.5,VerticalHorizontal_-22.500_-0.0581.png,A,18.0,722350.0,0.557,arrowright,arrowright,0
7w8ocdog30,VerticalHorizontal,0.0581,13.5,VerticalHorizontal_13.5000_0.05810.png,A,19.0,723677.0,0.822,arrowleft,arrowleft,0
7w8ocdog30,VerticalHorizontal,0.12339,4.5,VerticalHorizontal_4.50000_0.12339.png,A,20.0,725289.0,0.554,arrowleft,arrowleft,0
7w8ocdog30,VerticalHorizontal,0.20298,22.5,VerticalHorizontal_22.5000_0.20298.png,A,21.0,726535.0,1.084,arrowleft,arrowleft,0
7w8ocdog30,VerticalHorizontal,-0.20298,13.5,VerticalHorizontal_13.5000_-0.20298.png,A,22.0,728585.0,0.498,arrowright,arrowright,0
7w8ocdog30,VerticalHorizontal,-0.3,-31.5,VerticalHorizontal_-31.500_-0.3000.png,A,23.0,730138.0,0.457,arrowright,arrowright,0
7w8ocdog30,VerticalHorizontal,-0.12339,4.5,VerticalHorizontal_4.50000_-0.12339.png,A,24.0,731207.0,0.988,arrowleft,arrowright,1
7w8ocdog30,VerticalHorizontal,-0.20298,31.5,VerticalHorizontal_31.5000_-0.20298.png,A,25.0,732825.0,1.402,arrowright,arrowright,0
7w8ocdog30,VerticalHorizontal,-0.0581,4.5,VerticalHorizontal_4.50000_-0.0581.png,A,26.0,735047.0,0.716,arrowright,arrowright,0
7w8ocdog30,VerticalHorizontal,-0.12339,-31.5,VerticalHorizontal_-31.500_-0.12339.png,A,27.0,736524.0,0.446,arrowright,arrowright,0
7w8ocdog30,VerticalHorizontal,0.12339,-13.5,VerticalHorizontal_-13.500_0.12339.png,A,28.0,738007.0,0.468,arrowleft,arrowleft,0
7w8ocdog30,VerticalHorizontal,-0.3,22.5,VerticalHorizontal_22.5000_-0.3000.png,A,29.0,739093.0,0.575,arrowright,arrowright,0
7w8ocdog30,VerticalHorizontal,0.20298,-4.5,VerticalHorizontal_-4.5000_0.20298.png,A,30.0,740485.0,0.662,arrowleft,arrowleft,0
7w8ocdog30,VerticalHorizontal,-0.3,-13.5,VerticalHorizontal_-13.500_-0.3000.png,A,31.0,742174.0,0.421,arrowright,arrowright,0
7w8ocdog30,VerticalHorizontal,0.0581,22.5,VerticalHorizontal_22.5000_0.05810.png,A,32.0,743517.0,0.43,arrowright,arrowleft,1
7w8ocdog30,VerticalHorizontal,-0.3,40.5,VerticalHorizontal_40.5000_-0.3000.png,A,33.0,744878.0,0.693,arrowright,arrowright,0
7w8ocdog30,VerticalHorizontal,-0.12339,-4.5,VerticalHorizontal_-4.5000_-0.12339.png,A,34.0,746656.0,0.459,arrowright,arrowright,0
7w8ocdog30,VerticalHorizontal,0.3,-4.5,VerticalHorizontal_-4.5000_0.30000.png,A,35.0,748144.0,0.451,arrowleft,arrowleft,0
7w8ocdog30,VerticalHorizontal,0.0581,40.5,VerticalHorizontal_40.5000_0.05810.png,A,36.0,749292.0,0.479,arrowright,arrowleft,1
7w8ocdog30,VerticalHorizontal,-0.0581,-40.5,VerticalHorizontal_-40.500_-0.0581.png,A,37.0,750761.0,0.434,arrowright,arrowright,0
7w8ocdog30,VerticalHorizontal,0.0581,31.5,VerticalHorizontal_31.5000_0.05810.png,A,38.0,751843.0,0.512,arrowleft,arrowleft,0
7w8ocdog30,VerticalHorizontal,0.12339,40.5,VerticalHorizontal_40.5000_0.12339.png,A,39.0,753145.0,0.642,arrowleft,arrowleft,0
7w8ocdog30,VerticalHorizontal,0.3,-22.5,VerticalHorizontal_-22.500_0.30000.png,A,40.0,754445.0,0.518,arrowleft,arrowleft,0
7w8ocdog30,VerticalHorizontal,-0.12339,-13.5,VerticalHorizontal_-13.500_-0.12339.png,A,41.0,755700.0,0.439,arrowright,arrowright,0
7w8ocdog30,VerticalHorizontal,0.12339,22.5,VerticalHorizontal_22.5000_0.12339.png,A,42.0,758297.0,0.574,arrowright,arrowleft,1
7w8ocdog30,VerticalHorizontal,0.3,40.5,VerticalHorizontal_40.5000_0.30000.png,A,43.0,759634.0,0.476,arrowleft,arrowleft,0
7w8ocdog30,VerticalHorizontal,-0.0581,31.5,VerticalHorizontal_31.5000_-0.0581.png,A,44.0,760966.0,0.817,arrowright,arrowright,0
7w8ocdog30,VerticalHorizontal,-0.12339,13.5,VerticalHorizontal_13.5000_-0.12339.png,A,45.0,762750.0,0.688,arrowright,arrowright,0
7w8ocdog30,VerticalHorizontal,0.12339,31.5,VerticalHorizontal_31.5000_0.12339.png,A,46.0,764505.0,0.662,arrowleft,arrowleft,0
7w8ocdog30,VerticalHorizontal,0.12339,13.5,VerticalHorizontal_13.5000_0.12339.png,A,47.0,765944.0,0.575,arrowleft,arrowleft,0
7w8ocdog30,VerticalHorizontal,-0.20298,-40.5,VerticalHorizontal_-40.500_-0.20298.png,A,48.0,767233.0,0.414,arrowright,arrowright,0
7w8ocdog30,VerticalHorizontal,-0.3,-22.5,VerticalHorizontal_-22.500_-0.3000.png,A,49.0,768274.0,0.372,arrowright,arrowright,0
7w8ocdog30,VerticalHorizontal,0.3,-40.5,VerticalHorizontal_-40.500_0.30000.png,A,50.0,769680.0,0.462,arrowleft,arrowleft,0
7w8ocdog30,VerticalHorizontal,-0.0581,-4.5,VerticalHorizontal_-4.5000_-0.0581.png,A,51.0,770980.0,0.555,arrowright,arrowright,0
7w8ocdog30,VerticalHorizontal,0.0581,-31.5,VerticalHorizontal_-31.500_0.05810.png,A,52.0,772387.0,0.42,arrowleft,arrowleft,0
7w8ocdog30,VerticalHorizontal,0.12339,-22.5,VerticalHorizontal_-22.500_0.12339.png,A,53.0,773861.0,0.434,arrowleft,arrowleft,0
7w8ocdog30,VerticalHorizontal,-0.0581,-31.5,VerticalHorizontal_-31.500_-0.0581.png,A,54.0,775243.0,0.428,arrowright,arrowright,0
7w8ocdog30,VerticalHorizontal,0.20298,-22.5,VerticalHorizontal_-22.500_0.20298.png,A,55.0,776394.0,0.453,arrowleft,arrowleft,0
7w8ocdog30,VerticalHorizontal,0.20298,-13.5,VerticalHorizontal_-13.500_0.20298.png,A,56.0,777527.0,0.416,arrowleft,arrowleft,0
7w8ocdog30,VerticalHorizontal,-0.12339,22.5,VerticalHorizontal_22.5000_-0.12339.png,A,57.0,778719.0,0.383,arrowleft,arrowright,1
7w8ocdog30,VerticalHorizontal,0.20298,-40.5,VerticalHorizontal_-40.500_0.20298.png,A,58.0,780178.0,0.444,arrowleft,arrowleft,0
7w8ocdog30,VerticalHorizontal,-0.0581,40.5,VerticalHorizontal_40.5000_-0.0581.png,A,59.0,781559.0,0.903,arrowright,arrowright,0
7w8ocdog30,VerticalHorizontal,0.20298,4.5,VerticalHorizontal_4.50000_0.20298.png,A,60.0,783550.0,0.466,arrowleft,arrowleft,0
7w8ocdog30,VerticalHorizontal,0.3,-13.5,VerticalHorizontal_-13.500_0.30000.png,A,61.0,784698.0,0.421,arrowleft,arrowleft,0
7w8ocdog30,VerticalHorizontal,-0.12339,40.5,VerticalHorizontal_40.5000_-0.12339.png,A,62.0,786071.0,0.383,arrowleft,arrowright,1
7w8ocdog30,VerticalHorizontal,0.3,13.5,VerticalHorizontal_13.5000_0.30000.png,A,63.0,787249.0,0.502,arrowleft,arrowleft,0
7w8ocdog30,VerticalHorizontal,-0.12339,-40.5,VerticalHorizontal_-40.500_-0.12339.png,A,64.0,788457.0,0.51,arrowright,arrowright,0
7w8ocdog30,VerticalHorizontal,-0.0581,13.5,VerticalHorizontal_13.5000_-0.0581.png,A,65.0,789781.0,0.674,arrowright,arrowright,0
7w8ocdog30,VerticalHorizontal,0.3,4.5,VerticalHorizontal_4.50000_0.30000.png,A,66.0,791065.0,0.581,arrowleft,arrowleft,0
7w8ocdog30,VerticalHorizontal,-0.12339,-22.5,VerticalHorizontal_-22.500_-0.12339.png,A,67.0,792555.0,0.508,arrowright,arrowright,0
7w8ocdog30,VerticalHorizontal,-0.3,4.5,VerticalHorizontal_4.50000_-0.3000.png,A,68.0,793735.0,0.472,arrowright,arrowright,0
7w8ocdog30,VerticalHorizontal,-0.0581,22.5,VerticalHorizontal_22.5000_-0.0581.png,A,69.0,795222.0,0.497,arrowleft,arrowright,1
7w8ocdog30,VerticalHorizontal,0.0581,-4.5,VerticalHorizontal_-4.5000_0.05810.png,A,70.0,796375.0,0.575,arrowleft,arrowleft,0
7w8ocdog30,VerticalHorizontal,-0.20298,-22.5,VerticalHorizontal_-22.500_-0.20298.png,A,71.0,797945.0,0.43,arrowright,arrowright,0
7w8ocdog30,VerticalHorizontal,-0.20298,-13.5,VerticalHorizontal_-13.500_-0.20298.png,A,72.0,799110.0,0.72,arrowright,arrowright,0
7w8ocdog30,VerticalHorizontal,0.12339,-40.5,VerticalHorizontal_-40.500_0.12339.png,A,73.0,800733.0,0.417,arrowleft,arrowleft,0
7w8ocdog30,VerticalHorizontal,0.3,-31.5,VerticalHorizontal_-31.500_0.30000.png,A,74.0,802146.0,0.436,arrowleft,arrowleft,0
7w8ocdog30,VerticalHorizontal,0.12339,-4.5,VerticalHorizontal_-4.5000_0.12339.png,A,75.0,803279.0,0.511,arrowleft,arrowleft,0
7w8ocdog30,VerticalHorizontal,-0.20298,-4.5,VerticalHorizontal_-4.5000_-0.20298.png,A,76.0,804516.0,0.467,arrowright,arrowright,0
7w8ocdog30,VerticalHorizontal,0.0581,-13.5,VerticalHorizontal_-13.500_0.05810.png,A,77.0,805632.0,0.527,arrowleft,arrowleft,0
7w8ocdog30,VerticalHorizontal,-0.0581,-13.5,VerticalHorizontal_-13.500_-0.0581.png,A,78.0,806999.0,0.448,arrowright,arrowright,0
7w8ocdog30,VerticalHorizontal,0.20298,31.5,VerticalHorizontal_31.5000_0.20298.png,A,79.0,808496.0,0.759,arrowleft,arrowleft,0
7w8ocdog30,VerticalHorizontal,-0.20298,-31.5,VerticalHorizontal_-31.500_-0.20298.png,A,80.0,810029.0,0.45,arrowright,arrowright,0
7w8ocdog30,MullerLyer,-0.1337,-18.0,MullerLyer_-18.000_-0.1337.png,B,1.0,1143244.0,0.514,arrowdown,arrowdown,0
7w8ocdog30,MullerLyer,-0.045,30.0,MullerLyer_30.0000_-0.0450.png,B,2.0,1144788.0,0.482,arrowup,arrowdown,1
7w8ocdog30,MullerLyer,-0.045,12.0,MullerLyer_12.0000_-0.0450.png,B,3.0,1146297.0,0.701,arrowup,arrowdown,1
7w8ocdog30,MullerLyer,-0.37364,6.0,MullerLyer_6.00000_-0.37364.png,B,4.0,1147744.0,0.494,arrowdown,arrowdown,0
7w8ocdog30,MullerLyer,0.045,-18.0,MullerLyer_-18.000_0.04500.png,B,5.0,1149322.0,0.475,arrowup,arrowup,0
7w8ocdog30,MullerLyer,-0.24183,6.0,MullerLyer_6.00000_-0.24183.png,B,6.0,1150481.0,0.5,arrowdown,arrowdown,0
7w8ocdog30,MullerLyer,-0.24183,-6.0,MullerLyer_-6.0000_-0.24183.png,B,7.0,1151868.0,0.442,arrowdown,arrowdown,0
7w8ocdog30,MullerLyer,0.045,-6.0,MullerLyer_-6.0000_0.04500.png,B,8.0,1153037.0,0.593,arrowup,arrowup,0
7w8ocdog30,MullerLyer,0.045,18.0,MullerLyer_18.0000_0.04500.png,B,9.0,1154678.0,0.519,arrowdown,arrowup,1
7w8ocdog30,MullerLyer,0.045,30.0,MullerLyer_30.0000_0.04500.png,B,10.0,1156020.0,0.514,arrowdown,arrowup,1
7w8ocdog30,MullerLyer,-0.37364,-12.0,MullerLyer_-12.000_-0.37364.png,B,11.0,1157207.0,0.511,arrowdown,arrowdown,0
7w8ocdog30,MullerLyer,0.1337,-18.0,MullerLyer_-18.000_0.13370.png,B,12.0,1158454.0,0.496,arrowup,arrowup,0
7w8ocdog30,MullerLyer,-0.1337,-12.0,MullerLyer_-12.000_-0.1337.png,B,13.0,1159942.0,0.487,arrowdown,arrowdown,0
7w8ocdog30,MullerLyer,0.1337,18.0,MullerLyer_18.0000_0.13370.png,B,14.0,1161129.0,0.628,arrowup,arrowup,0
7w8ocdog30,MullerLyer,0.37364,6.0,MullerLyer_6.00000_0.37364.png,B,15.0,1162774.0,0.496,arrowup,arrowup,0
7w8ocdog30,MullerLyer,-0.24183,-18.0,MullerLyer_-18.000_-0.24183.png,B,16.0,1164162.0,0.707,arrowdown,arrowdown,0
7w8ocdog30,MullerLyer,0.045,6.0,MullerLyer_6.00000_0.04500.png,B,17.0,1165597.0,1.265,arrowdown,arrowup,1
7w8ocdog30,MullerLyer,-0.24183,-12.0,MullerLyer_-12.000_-0.24183.png,B,18.0,1167516.0,0.546,arrowdown,arrowdown,0
7w8ocdog30,MullerLyer,-0.37364,18.0,MullerLyer_18.0000_-0.37364.png,B,19.0,1168721.0,0.54,arrowup,arrowdown,1
7w8ocdog30,MullerLyer,0.24183,-24.0,MullerLyer_-24.000_0.24183.png,B,20.0,1169919.0,0.486,arrowup,arrowup,0
7w8ocdog30,MullerLyer,-0.045,-6.0,MullerLyer_-6.0000_-0.0450.png,B,21.0,1171369.0,1.085,arrowdown,arrowdown,0
7w8ocdog30,MullerLyer,0.045,-12.0,MullerLyer_-12.000_0.04500.png,B,22.0,1173530.0,0.476,arrowup,arrowup,0
7w8ocdog30,MullerLyer,-0.37364,-6.0,MullerLyer_-6.0000_-0.37364.png,B,23.0,1174777.0,0.557,arrowdown,arrowdown,0
7w8ocdog30,MullerLyer,0.045,-30.0,MullerLyer_-30.000_0.04500.png,B,24.0,1176360.0,0.494,arrowup,arrowup,0
7w8ocdog30,MullerLyer,0.24183,18.0,MullerLyer_18.0000_0.24183.png,B,25.0,1177871.0,0.542,arrowup,arrowup,0
7w8ocdog30,MullerLyer,0.24183,-12.0,MullerLyer_-12.000_0.24183.png,B,26.0,1179278.0,0.44,arrowup,arrowup,0
7w8ocdog30,MullerLyer,-0.37364,24.0,MullerLyer_24.0000_-0.37364.png,B,27.0,1180609.0,0.469,arrowup,arrowdown,1
7w8ocdog30,MullerLyer,0.24183,-18.0,MullerLyer_-18.000_0.24183.png,B,28.0,1181751.0,0.478,arrowup,arrowup,0
7w8ocdog30,MullerLyer,-0.1337,18.0,MullerLyer_18.0000_-0.1337.png,B,29.0,1183024.0,0.454,arrowup,arrowdown,1
7w8ocdog30,MullerLyer,-0.37364,-18.0,MullerLyer_-18.000_-0.37364.png,B,30.0,1184104.0,0.494,arrowdown,arrowdown,0
7w8ocdog30,MullerLyer,-0.1337,24.0,MullerLyer_24.0000_-0.1337.png,B,31.0,1185477.0,0.568,arrowup,arrowdown,1
7w8ocdog30,MullerLyer,0.24183,12.0,MullerLyer_12.0000_0.24183.png,B,32.0,1186695.0,0.526,arrowup,arrowup,0
7w8ocdog30,MullerLyer,-0.24183,-24.0,MullerLyer_-24.000_-0.24183.png,B,33.0,1188209.0,0.509,arrowdown,arrowdown,0
7w8ocdog30,MullerLyer,0.1337,-24.0,MullerLyer_-24.000_0.13370.png,B,34.0,1189513.0,0.469,arrowup,arrowup,0
7w8ocdog30,MullerLyer,0.1337,-12.0,MullerLyer_-12.000_0.13370.png,B,35.0,1190896.0,0.445,arrowup,arrowup,0
7w8ocdog30,MullerLyer,-0.045,-18.0,MullerLyer_-18.000_-0.0450.png,B,36.0,1192374.0,0.488,arrowdown,arrowdown,0
7w8ocdog30,MullerLyer,0.24183,30.0,MullerLyer_30.0000_0.24183.png,B,37.0,1193968.0,0.605,arrowup,arrowup,0
7w8ocdog30,MullerLyer,0.24183,24.0,MullerLyer_24.0000_0.24183.png,B,38.0,1195611.0,1.315,arrowdown,arrowup,1
7w8ocdog30,MullerLyer,-0.1337,6.0,MullerLyer_6.00000_-0.1337.png,B,39.0,1197681.0,1.02,arrowdown,arrowdown,0
7w8ocdog30,MullerLyer,-0.37364,30.0,MullerLyer_30.0000_-0.37364.png,B,40.0,1199745.0,0.453,arrowup,arrowdown,1
7w8ocdog30,MullerLyer,-0.045,-24.0,MullerLyer_-24.000_-0.0450.png,B,41.0,1200981.0,0.721,arrowdown,arrowdown,0
7w8ocdog30,MullerLyer,-0.1337,30.0,MullerLyer_30.0000_-0.1337.png,B,42.0,1202465.0,0.828,arrowup,arrowdown,1
7w8ocdog30,MullerLyer,-0.24183,12.0,MullerLyer_12.0000_-0.24183.png,B,43.0,1204046.0,0.743,arrowdown,arrowdown,0
7w8ocdog30,MullerLyer,0.37364,-12.0,MullerLyer_-12.000_0.37364.png,B,44.0,1205496.0,0.453,arrowup,arrowup,0
7w8ocdog30,MullerLyer,0.1337,6.0,MullerLyer_6.00000_0.13370.png,B,45.0,1206610.0,0.756,arrowup,arrowup,0
7w8ocdog30,MullerLyer,-0.37364,-30.0,MullerLyer_-30.000_-0.37364.png,B,46.0,1208381.0,0.488,arrowdown,arrowdown,0
7w8ocdog30,MullerLyer,0.1337,24.0,MullerLyer_24.0000_0.13370.png,B,47.0,1209677.0,0.896,arrowdown,arrowup,1
7w8ocdog30,MullerLyer,-0.1337,-30.0,MullerLyer_-30.000_-0.1337.png,B,48.0,1211647.0,0.494,arrowdown,arrowdown,0
7w8ocdog30,MullerLyer,-0.24183,24.0,MullerLyer_24.0000_-0.24183.png,B,49.0,1212851.0,0.546,arrowup,arrowdown,1
7w8ocdog30,MullerLyer,0.24183,6.0,MullerLyer_6.00000_0.24183.png,B,50.0,1214195.0,0.594,arrowup,arrowup,0
7w8ocdog30,MullerLyer,0.37364,-6.0,MullerLyer_-6.0000_0.37364.png,B,51.0,1215840.0,0.502,arrowup,arrowup,0
7w8ocdog30,MullerLyer,-0.045,-30.0,MullerLyer_-30.000_-0.0450.png,B,52.0,1217339.0,0.443,arrowdown,arrowdown,0
7w8ocdog30,MullerLyer,0.37364,30.0,MullerLyer_30.0000_0.37364.png,B,53.0,1218707.0,0.81,arrowup,arrowup,0
7w8ocdog30,MullerLyer,0.24183,-30.0,MullerLyer_-30.000_0.24183.png,B,54.0,1220225.0,0.556,arrowup,arrowup,0
7w8ocdog30,MullerLyer,-0.37364,-24.0,MullerLyer_-24.000_-0.37364.png,B,55.0,1221584.0,0.63,arrowdown,arrowdown,0
7w8ocdog30,MullerLyer,-0.24183,18.0,MullerLyer_18.0000_-0.24183.png,B,56.0,1223072.0,1.205,arrowdown,arrowdown,0
7w8ocdog30,MullerLyer,0.37364,12.0,MullerLyer_12.0000_0.37364.png,B,57.0,1225134.0,0.463,arrowup,arrowup,0
7w8ocdog30,MullerLyer,0.37364,18.0,MullerLyer_18.0000_0.37364.png,B,58.0,1226303.0,0.454,arrowup,arrowup,0
7w8ocdog30,MullerLyer,-0.045,-12.0,MullerLyer_-12.000_-0.0450.png,B,59.0,1227629.0,0.457,arrowdown,arrowdown,0
7w8ocdog30,MullerLyer,-0.1337,-6.0,MullerLyer_-6.0000_-0.1337.png,B,60.0,1228771.0,0.546,arrowdown,arrowdown,0
7w8ocdog30,MullerLyer,-0.045,24.0,MullerLyer_24.0000_-0.0450.png,B,61.0,1230104.0,0.566,arrowup,arrowdown,1
7w8ocdog30,MullerLyer,0.37364,-18.0,MullerLyer_-18.000_0.37364.png,B,62.0,1231600.0,0.397,arrowup,arrowup,0
7w8ocdog30,MullerLyer,0.37364,24.0,MullerLyer_24.0000_0.37364.png,B,63.0,1233099.0,0.69,arrowup,arrowup,0
7w8ocdog30,MullerLyer,0.045,12.0,MullerLyer_12.0000_0.04500.png,B,64.0,1234835.0,0.658,arrowup,arrowup,0
7w8ocdog30,MullerLyer,-0.24183,-30.0,MullerLyer_-30.000_-0.24183.png,B,65.0,1236337.0,0.477,arrowdown,arrowdown,0
7w8ocdog30,MullerLyer,-0.045,18.0,MullerLyer_18.0000_-0.0450.png,B,66.0,1237856.0,0.542,arrowup,arrowdown,1
7w8ocdog30,MullerLyer,0.045,24.0,MullerLyer_24.0000_0.04500.png,B,67.0,1239024.0,0.749,arrowdown,arrowup,1
7w8ocdog30,MullerLyer,-0.24183,30.0,MullerLyer_30.0000_-0.24183.png,B,68.0,1240605.0,0.545,arrowup,arrowdown,1
7w8ocdog30,MullerLyer,-0.045,6.0,MullerLyer_6.00000_-0.0450.png,B,69.0,1242183.0,0.743,arrowup,arrowdown,1
7w8ocdog30,MullerLyer,0.1337,-6.0,MullerLyer_-6.0000_0.13370.png,B,70.0,1243961.0,0.492,arrowup,arrowup,0
7w8ocdog30,MullerLyer,0.37364,-30.0,MullerLyer_-30.000_0.37364.png,B,71.0,1245448.0,0.413,arrowup,arrowup,0
7w8ocdog30,MullerLyer,0.1337,12.0,MullerLyer_12.0000_0.13370.png,B,72.0,1246818.0,0.995,arrowup,arrowup,0
7w8ocdog30,MullerLyer,0.1337,30.0,MullerLyer_30.0000_0.13370.png,B,73.0,1248660.0,0.458,arrowdown,arrowup,1
7w8ocdog30,MullerLyer,0.24183,-6.0,MullerLyer_-6.0000_0.24183.png,B,74.0,1249877.0,0.616,arrowup,arrowup,0
7w8ocdog30,MullerLyer,-0.37364,12.0,MullerLyer_12.0000_-0.37364.png,B,75.0,1251518.0,0.495,arrowdown,arrowdown,0
7w8ocdog30,MullerLyer,-0.1337,12.0,MullerLyer_12.0000_-0.1337.png,B,76.0,1252659.0,0.882,arrowup,arrowdown,1
7w8ocdog30,MullerLyer,-0.1337,-24.0,MullerLyer_-24.000_-0.1337.png,B,77.0,1254416.0,0.437,arrowdown,arrowdown,0
7w8ocdog30,MullerLyer,0.1337,-30.0,MullerLyer_-30.000_0.13370.png,B,78.0,1255914.0,0.499,arrowup,arrowup,0
7w8ocdog30,MullerLyer,0.045,-24.0,MullerLyer_-24.000_0.04500.png,B,79.0,1257208.0,0.805,arrowup,arrowup,0
7w8ocdog30,MullerLyer,0.37364,-24.0,MullerLyer_-24.000_0.37364.png,B,80.0,1258737.0,0.517,arrowup,arrowup,0
7w8ocdog30,Ebbinghaus,0.05,-1.2,Ebbinghaus_-1.2000_0.05000.png,B,1.0,1266120.0,0.677,arrowleft,arrowleft,0
7w8ocdog30,Ebbinghaus,0.41515,1.2,Ebbinghaus_1.20000_0.41515.png,B,2.0,1267516.0,0.425,arrowleft,arrowleft,0
7w8ocdog30,Ebbinghaus,-0.05,-1.2,Ebbinghaus_-1.2000_-0.0500.png,B,3.0,1268611.0,0.658,arrowright,arrowright,0
7w8ocdog30,Ebbinghaus,-0.41515,0.3,Ebbinghaus_0.30000_-0.41515.png,B,4.0,1270002.0,0.419,arrowright,arrowright,0
7w8ocdog30,Ebbinghaus,0.2687,0.6,Ebbinghaus_0.60000_0.26870.png,B,5.0,1271258.0,0.443,arrowleft,arrowleft,0
7w8ocdog30,Ebbinghaus,-0.2687,0.3,Ebbinghaus_0.30000_-0.2687.png,B,6.0,1272385.0,0.492,arrowright,arrowright,0
7w8ocdog30,Ebbinghaus,0.05,-1.5,Ebbinghaus_-1.5000_0.05000.png,B,7.0,1273636.0,0.442,arrowleft,arrowleft,0
7w8ocdog30,Ebbinghaus,0.05,0.3,Ebbinghaus_0.30000_0.05000.png,B,8.0,1274840.0,0.438,arrowleft,arrowleft,0
7w8ocdog30,Ebbinghaus,-0.2687,-1.5,Ebbinghaus_-1.5000_-0.2687.png,B,9.0,1276323.0,0.466,arrowright,arrowright,0
7w8ocdog30,Ebbinghaus,0.14856,-1.5,Ebbinghaus_-1.5000_0.14856.png,B,10.0,1277495.0,0.51,arrowleft,arrowleft,0
7w8ocdog30,Ebbinghaus,0.05,0.6,Ebbinghaus_0.60000_0.05000.png,B,11.0,1278836.0,0.585,arrowright,arrowleft,1
7w8ocdog30,Ebbinghaus,-0.05,1.5,Ebbinghaus_1.50000_-0.0500.png,B,12.0,1280220.0,0.705,arrowleft,arrowright,1
7w8ocdog30,Ebbinghaus,0.14856,-0.3,Ebbinghaus_-0.3000_0.14856.png,B,13.0,1281940.0,0.465,arrowleft,arrowleft,0
7w8ocdog30,Ebbinghaus,-0.41515,-0.9,Ebbinghaus_-0.9000_-0.41515.png,B,14.0,1283380.0,0.569,arrowright,arrowright,0
7w8ocdog30,Ebbinghaus,0.14856,-0.6,Ebbinghaus_-0.6000_0.14856.png,B,15.0,1284693.0,0.496,arrowleft,arrowleft,0
7w8ocdog30,Ebbinghaus,-0.05,-1.5,Ebbinghaus_-1.5000_-0.0500.png,B,16.0,1286195.0,0.57,arrowright,arrowright,0
7w8ocdog30,Ebbinghaus,-0.05,-0.6,Ebbinghaus_-0.6000_-0.0500.png,B,17.0,1287457.0,0.82,arrowright,arrowright,0
7w8ocdog30,Ebbinghaus,0.14856,1.2,Ebbinghaus_1.20000_0.14856.png,B,18.0,1288892.0,0.625,arrowright,arrowleft,1
7w8ocdog30,Ebbinghaus,0.2687,0.3,Ebbinghaus_0.30000_0.26870.png,B,19.0,1290570.0,1.019,arrowleft,arrowleft,0
7w8ocdog30,Ebbinghaus,-0.14856,-0.3,Ebbinghaus_-0.3000_-0.14856.png,B,20.0,1292559.0,0.837,arrowright,arrowright,0
7w8ocdog30,Ebbinghaus,0.05,-0.3,Ebbinghaus_-0.3000_0.05000.png,B,21.0,1294104.0,0.717,arrowleft,arrowleft,0
7w8ocdog30,Ebbinghaus,0.14856,0.9,Ebbinghaus_0.90000_0.14856.png,B,22.0,1295646.0,0.495,arrowleft,arrowleft,0
7w8ocdog30,Ebbinghaus,0.05,0.9,Ebbinghaus_0.90000_0.05000.png,B,23.0,1296877.0,0.583,arrowleft,arrowleft,0
7w8ocdog30,Ebbinghaus,-0.41515,-0.3,Ebbinghaus_-0.3000_-0.41515.png,B,24.0,1298412.0,0.497,arrowright,arrowright,0
7w8ocdog30,Ebbinghaus,0.14856,0.3,Ebbinghaus_0.30000_0.14856.png,B,25.0,1299883.0,0.578,arrowright,arrowleft,1
7w8ocdog30,Ebbinghaus,-0.41515,-0.6,Ebbinghaus_-0.6000_-0.41515.png,B,26.0,1301367.0,0.429,arrowright,arrowright,0
7w8ocdog30,Ebbinghaus,-0.14856,0.6,Ebbinghaus_0.60000_-0.14856.png,B,27.0,1302787.0,0.546,arrowright,arrowright,0
7w8ocdog30,Ebbinghaus,0.05,-0.6,Ebbinghaus_-0.6000_0.05000.png,B,28.0,1304110.0,0.703,arrowleft,arrowleft,0
7w8ocdog30,Ebbinghaus,-0.2687,0.6,Ebbinghaus_0.60000_-0.2687.png,B,29.0,1305778.0,0.547,arrowright,arrowright,0
7w8ocdog30,Ebbinghaus,0.14856,-1.2,Ebbinghaus_-1.2000_0.14856.png,B,30.0,1307105.0,0.5,arrowleft,arrowleft,0
7w8ocdog30,Ebbinghaus,-0.41515,-1.5,Ebbinghaus_-1.5000_-0.41515.png,B,31.0,1308395.0,0.497,arrowright,arrowright,0
7w8ocdog30,Ebbinghaus,0.2687,1.5,Ebbinghaus_1.50000_0.26870.png,B,32.0,1309550.0,0.639,arrowright,arrowleft,1
7w8ocdog30,Ebbinghaus,0.41515,-1.2,Ebbinghaus_-1.2000_0.41515.png,B,33.0,1310801.0,0.493,arrowleft,arrowleft,0
7w8ocdog30,Ebbinghaus,-0.14856,-0.6,Ebbinghaus_-0.6000_-0.14856.png,B,34.0,1312050.0,0.451,arrowright,arrowright,0
7w8ocdog30,Ebbinghaus,0.2687,0.9,Ebbinghaus_0.90000_0.26870.png,B,35.0,1313171.0,0.546,arrowleft,arrowleft,0
7w8ocdog30,Ebbinghaus,-0.05,0.3,Ebbinghaus_0.30000_-0.0500.png,B,36.0,1314565.0,0.456,arrowright,arrowright,0
7w8ocdog30,Ebbinghaus,-0.14856,-1.5,Ebbinghaus_-1.5000_-0.14856.png,B,37.0,1315813.0,0.472,arrowright,arrowright,0
7w8ocdog30,Ebbinghaus,-0.14856,0.9,Ebbinghaus_0.90000_-0.14856.png,B,38.0,1317333.0,0.584,arrowright,arrowright,0
7w8ocdog30,Ebbinghaus,-0.05,-0.3,Ebbinghaus_-0.3000_-0.0500.png,B,39.0,1318995.0,0.482,arrowright,arrowright,0
7w8ocdog30,Ebbinghaus,-0.2687,1.5,Ebbinghaus_1.50000_-0.2687.png,B,40.0,1320134.0,0.399,arrowright,arrowright,0
7w8ocdog30,Ebbinghaus,0.2687,-1.5,Ebbinghaus_-1.5000_0.26870.png,B,41.0,1321212.0,0.537,arrowleft,arrowleft,0
7w8ocdog30,Ebbinghaus,-0.05,1.2,Ebbinghaus_1.20000_-0.0500.png,B,42.0,1322733.0,0.448,arrowleft,arrowright,1
7w8ocdog30,Ebbinghaus,0.2687,-0.9,Ebbinghaus_-0.9000_0.26870.png,B,43.0,1323803.0,0.579,arrowleft,arrowleft,0
7w8ocdog30,Ebbinghaus,0.41515,-0.3,Ebbinghaus_-0.3000_0.41515.png,B,44.0,1325160.0,0.501,arrowleft,arrowleft,0
7w8ocdog30,Ebbinghaus,0.14856,-0.9,Ebbinghaus_-0.9000_0.14856.png,B,45.0,1326587.0,0.482,arrowleft,arrowleft,0
7w8ocdog30,Ebbinghaus,-0.14856,1.5,Ebbinghaus_1.50000_-0.14856.png,B,46.0,1328026.0,0.635,arrowright,arrowright,0
7w8ocdog30,Ebbinghaus,0.05,1.5,Ebbinghaus_1.50000_0.05000.png,B,47.0,1329683.0,0.554,arrowright,arrowleft,1
7w8ocdog30,Ebbinghaus,0.41515,-0.9,Ebbinghaus_-0.9000_0.41515.png,B,48.0,1331164.0,0.49,arrowleft,arrowleft,0
7w8ocdog30,Ebbinghaus,0.05,-0.9,Ebbinghaus_-0.9000_0.05000.png,B,49.0,1332382.0,0.632,arrowleft,arrowleft,0
7w8ocdog30,Ebbinghaus,-0.14856,1.2,Ebbinghaus_1.20000_-0.14856.png,B,50.0,1333880.0,0.557,arrowright,arrowright,0
7w8ocdog30,Ebbinghaus,-0.41515,0.6,Ebbinghaus_0.60000_-0.41515.png,B,51.0,1335129.0,0.437,arrowright,arrowright,0
7w8ocdog30,Ebbinghaus,-0.14856,-0.9,Ebbinghaus_-0.9000_-0.14856.png,B,52.0,1336648.0,0.534,arrowright,arrowright,0
7w8ocdog30,Ebbinghaus,-0.41515,1.5,Ebbinghaus_1.50000_-0.41515.png,B,53.0,1338195.0,0.426,arrowright,arrowright,0
7w8ocdog30,Ebbinghaus,0.41515,1.5,Ebbinghaus_1.50000_0.41515.png,B,54.0,1339336.0,0.781,arrowleft,arrowleft,0
7w8ocdog30,Ebbinghaus,0.2687,1.2,Ebbinghaus_1.20000_0.26870.png,B,55.0,1340884.0,0.914,arrowleft,arrowleft,0
7w8ocdog30,Ebbinghaus,-0.2687,-0.3,Ebbinghaus_-0.3000_-0.2687.png,B,56.0,1342527.0,0.446,arrowright,arrowright,0
7w8ocdog30,Ebbinghaus,0.2687,-1.2,Ebbinghaus_-1.2000_0.26870.png,B,57.0,1343596.0,0.506,arrowleft,arrowleft,0
7w8ocdog30,Ebbinghaus,0.41515,0.3,Ebbinghaus_0.30000_0.41515.png,B,58.0,1344800.0,0.445,arrowleft,arrowleft,0
7w8ocdog30,Ebbinghaus,-0.05,0.9,Ebbinghaus_0.90000_-0.0500.png,B,59.0,1346037.0,0.616,arrowleft,arrowright,1
7w8ocdog30,Ebbinghaus,-0.05,-0.9,Ebbinghaus_-0.9000_-0.0500.png,B,60.0,1347753.0,0.564,arrowright,arrowright,0
7w8ocdog30,Ebbinghaus,-0.14856,-1.2,Ebbinghaus_-1.2000_-0.14856.png,B,61.0,1349202.0,0.467,arrowright,arrowright,0
7w8ocdog30,Ebbinghaus,-0.41515,1.2,Ebbinghaus_1.20000_-0.41515.png,B,62.0,1350548.0,0.337,arrowright,arrowright,0
7w8ocdog30,Ebbinghaus,0.41515,0.6,Ebbinghaus_0.60000_0.41515.png,B,63.0,1351813.0,0.464,arrowleft,arrowleft,0
7w8ocdog30,Ebbinghaus,0.14856,1.5,Ebbinghaus_1.50000_0.14856.png,B,64.0,1353280.0,0.477,arrowright,arrowleft,1
7w8ocdog30,Ebbinghaus,0.2687,-0.6,Ebbinghaus_-0.6000_0.26870.png,B,65.0,1354590.0,0.559,arrowleft,arrowleft,0
7w8ocdog30,Ebbinghaus,-0.05,0.6,Ebbinghaus_0.60000_-0.0500.png,B,66.0,1356073.0,0.916,arrowleft,arrowright,1
7w8ocdog30,Ebbinghaus,-0.14856,0.3,Ebbinghaus_0.30000_-0.14856.png,B,67.0,1358039.0,0.814,arrowright,arrowright,0
7w8ocdog30,Ebbinghaus,-0.2687,-0.6,Ebbinghaus_-0.6000_-0.2687.png,B,68.0,1359834.0,0.475,arrowright,arrowright,0
7w8ocdog30,Ebbinghaus,-0.2687,1.2,Ebbinghaus_1.20000_-0.2687.png,B,69.0,1361200.0,0.421,arrowright,arrowright,0
7w8ocdog30,Ebbinghaus,0.05,1.2,Ebbinghaus_1.20000_0.05000.png,B,70.0,1362464.0,0.469,arrowright,arrowleft,1
7w8ocdog30,Ebbinghaus,0.2687,-0.3,Ebbinghaus_-0.3000_0.26870.png,B,71.0,1363980.0,0.673,arrowleft,arrowleft,0
7w8ocdog30,Ebbinghaus,0.41515,0.9,Ebbinghaus_0.90000_0.41515.png,B,72.0,1365744.0,0.445,arrowleft,arrowleft,0
7w8ocdog30,Ebbinghaus,-0.2687,-0.9,Ebbinghaus_-0.9000_-0.2687.png,B,73.0,1366933.0,0.463,arrowright,arrowright,0
